t_ms,ax,ay,az,gx,gy,gz,yaw,pitch,roll
290889.0,0.7059,-0.1248,-0.7683,4.6052,1.8518,-1.6899,229.51,35.34,124.9
290908.0,0.7332,-0.1131,-0.7566,4.6052,1.7127,0.0493,229.6,35.21,125.04
290927.0,0.7215,-0.1248,-0.7605,4.6052,2.5475,1.9275,229.69,35.08,125.19
290946.0,0.7098,-0.1365,-0.7371,4.953,2.1997,3.1797,229.78,34.94,125.33
290965.0,0.6981,-0.1287,-0.7215,4.0487,1.6431,2.7623,229.87,34.81,125.47
290984.0,0.6942,-0.1131,-0.7332,2.4487,1.2953,1.0927,229.96,34.68,125.62
291003.0,0.6786,-0.1404,-0.7488,2.5878,0.9475,1.5797,230.05,34.55,125.76
291022.0,0.6552,-0.1443,-0.7371,3.7704,1.0866,2.4145,230.15,34.42,125.91
291042.0,0.6708,-0.1326,-0.7371,2.24,0.1823,4.084,230.24,34.28,126.06
291061.0,0.6708,-0.1365,-0.7449,0.9183,0.1823,2.0666,230.33,34.14,126.21
291080.0,0.6474,-0.1482,-0.7644,0.0139,1.8518,1.7188,230.43,34.01,126.37
291099.0,0.663,-0.156,-0.7878,0.2226,2.0605,2.7623,230.52,33.88,126.52
291118.0,0.702,-0.1287,-0.7527,1.3357,3.3127,1.3014,230.61,33.75,126.66
291137.0,0.6903,-0.1365,-0.7644,-0.3339,5.4692,0.1884,230.7,33.61,126.81
291156.0,0.663,-0.1482,-0.7878,-0.7513,6.5823,1.1623,230.79,33.48,126.96
291175.0,0.6318,-0.1599,-0.8034,0.4313,5.9562,2.9014,230.89,33.34,127.12
291194.0,0.6279,-0.1677,-0.7527,-0.3339,3.7997,4.7797,230.98,33.22,127.27
291213.0,0.6708,-0.1677,-0.7371,-1.1687,3.5214,3.5275,231.06,33.08,127.41
291232.0,0.6357,-0.1716,-0.7332,-0.8209,4.7736,1.4406,231.15,32.95,127.56
291251.0,0.6279,-0.1794,-0.7293,-1.2383,5.6083,-0.5073,231.25,32.82,127.72
291271.0,0.5889,-0.1794,-0.7098,-1.0991,6.7214,0.7449,231.34,32.69,127.88
291290.0,0.5577,-0.1716,-0.6513,0.2226,8.6692,0.8145,231.43,32.56,128.03
291309.0,0.4368,-0.1716,-0.5889,0.7791,13.5388,-1.8986,231.53,32.44,128.2
291328.0,0.2028,-0.1989,-0.5226,1.0574,21.0518,-8.8551,231.66,32.35,128.41
291347.0,-0.039,-0.2418,-0.3666,2.24,28.8431,-20.3334,231.81,32.35,128.66
291366.0,-0.2964,-0.273,-0.2379,-6.1774,40.4605,-29.516,231.93,32.47,128.84
291385.0,-0.4056,-0.2145,-0.1092,-18.56,54.8605,-42.5942,232.02,32.61,128.94
291405.0,-0.7995,-0.195,-0.1131,-28.16,68.217,-71.4638,232.1,32.77,129.01
291424.0,-0.9906,-0.1833,-0.1677,-30.247,71.5562,-111.8812,232.19,32.95,129.09
291443.0,-1.4742,-0.1404,-0.1092,-27.1165,66.2692,-165.9333,232.27,33.14,129.14
291463.0,-1.9968,0.0819,0.2613,-25.3078,60.1475,-234.5247,232.34,33.33,129.15
291482.0,-1.9968,0.663,0.585,-32.4035,63.3475,-335.2551,232.41,33.52,129.12
291501.0,-1.9968,1.3533,0.5733,-56.2644,86.9997,-409.1334,232.49,33.71,129.06
291520.0,-1.9968,1.9929,0.4758,-79.6383,86.4431,-573.7943,232.58,33.91,128.98
291540.0,-1.9968,1.9929,0.6045,-101.5513,70.9997,-724.9595,232.72,34.16,128.92
291559.0,-1.9968,1.9929,0.5226,-109.1339,55.2779,-812.9595,232.87,34.43,128.86
291578.0,-1.9968,1.9929,0.8307,-133.76,47.3475,-852.9595,233.03,34.7,128.81
291598.0,-1.9968,1.9929,1.1427,-149.9687,59.7301,-785.5508,233.18,34.97,128.74
291617.0,-1.9968,1.9929,1.6302,-188.7165,79.2779,-734.4203,233.33,35.19,128.68
291636.0,-1.9968,1.9929,1.9929,-240.6122,96.2518,-705.6203,233.47,35.41,128.6
291655.0,-1.9968,1.9929,1.9929,-272.4731,134.9301,-721.4812,233.63,35.62,128.51
291675.0,-1.9968,1.9929,1.9773,-266.9078,196.4953,-646.2812,233.8,35.81,128.43
291694.0,-1.9968,1.9929,1.6848,-293.2035,300.0083,-445.8638,233.93,35.91,128.33
291713.0,-1.9968,1.9929,-0.0351,-243.1861,484.4257,-383.9507,234.1,35.99,128.23
291733.0,-1.9968,1.9929,-0.3471,-168.5426,566.1649,-505.7595,234.32,36.1,128.17
291752.0,-1.9968,1.9929,-0.663,-167.9861,583.2083,-554.0377,234.55,36.23,128.1
291771.0,-1.9968,1.9929,-0.8034,-195.6035,564.9822,-550.2812,234.77,36.36,128.02
291790.0,-1.9968,1.482,-0.7644,-76.647,540.4953,-492.3334,235.02,36.57,128.06
291810.0,-1.9968,1.9929,-0.1326,155.4226,505.9214,-478.2116,235.21,36.67,128.11
291829.0,-1.9968,1.9929,0.3705,130.8661,533.8866,-429.0986,235.4,36.74,128.16
291848.0,-1.9968,1.9929,-0.0702,31.8748,560.5997,-336.8551,235.57,36.79,128.16
291868.0,-1.9305,1.1466,-0.1872,97.6835,553.7822,-277.3768,235.77,36.9,128.23
291887.0,-1.6653,1.5054,-0.1287,262.6226,529.7822,-224.8551,235.91,36.94,128.29
291906.0,-1.5639,1.9929,-0.0663,329.6835,511.8344,-177.9681,236.0,36.92,128.33
291926.0,-1.4859,1.9929,-0.078,260.8835,460.704,-155.7768,236.08,36.89,128.33
291945.0,-1.1544,1.911,0.2028,177.4748,397.1909,-130.7334,236.14,36.86,128.3
291964.0,-1.0023,1.3533,0.1833,165.1617,362.3388,-92.6812,236.17,36.84,128.26
291983.0,-0.7449,1.2948,0.3315,184.3617,333.9562,-67.0812,236.2,36.8,128.23
292003.0,-0.5811,1.209,0.4251,182.2748,316.7736,-32.6464,236.21,36.75,128.19
292022.0,-0.3705,1.1037,0.5499,171.2139,290.0605,-12.3334,236.22,36.69,128.15
292041.0,-0.117,0.7605,0.7683,159.5965,273.7127,25.4406,236.23,36.63,128.13
292060.0,0.0429,0.4875,0.9477,148.8835,238.8605,36.9188,236.24,36.58,128.11
292080.0,0.2652,0.2379,1.1778,146.3096,201.2953,42.6927,236.24,36.53,128.11
292099.0,0.3705,0.2574,1.2753,142.9704,169.9214,49.9971,236.24,36.48,128.11
292118.0,0.3783,0.0975,1.2753,126.553,140.0779,49.2319,236.23,36.45,128.1
292138.0,0.5889,-0.1755,1.4274,115.9791,100.217,23.284,236.22,36.43,128.09
292157.0,0.7215,-0.0702,1.4781,97.753,67.2431,7.3536,236.21,36.41,128.08
292176.0,0.6084,-0.0429,1.2168,51.9096,45.2605,8.9536,236.18,36.4,128.04
292195.0,0.6201,-0.1209,0.9594,22.7617,18.2692,2.3449,236.16,36.39,128.0
292214.0,0.5655,-0.2301,0.6006,13.0922,1.3649,4.0145,236.14,36.37,127.97
292233.0,0.5577,-0.2184,0.4173,43.4922,-7.0525,-0.8551,236.12,36.36,127.96
292252.0,0.7566,-0.1989,0.585,75.4226,-1.2786,-1.6899,236.1,36.33,127.95
292272.0,0.9165,-0.0195,0.7722,68.1878,17.4344,17.8579,236.08,36.29,127.92
292291.0,0.9321,0.0039,0.8034,60.0487,40.391,24.5362,236.05,36.25,127.9
292310.0,0.8892,-0.0078,0.8541,43.84,48.8083,21.4058,236.03,36.21,127.87
292329.0,0.8073,-0.0468,0.8775,22.4835,56.0431,15.1449,236.02,36.18,127.83
292348.0,0.8151,-0.1521,0.9711,2.9357,54.1649,5.6145,236.01,36.15,127.79
292367.0,0.7761,-0.2067,1.0218,-13.6904,47.9736,2.5536,236.0,36.13,127.75
292386.0,0.6981,-0.1521,1.1037,-29.273,35.104,0.8145,235.98,36.12,127.7
292405.0,0.5928,-0.039,1.1973,-57.6557,9.2953,-9.6899,235.95,36.12,127.62
292424.0,0.5538,0.0,1.2012,-93.6904,-19.3656,-26.8029,235.91,36.13,127.52
292448.0,0.5733,-0.0819,1.0413,-125.6209,-41.1395,-41.6203,235.86,36.15,127.4
292524.0,0.507,0.1443,0.6903,-170.4904,-103.609,-35.4986,235.67,36.21,126.92
292582.0,0.5616,0.0156,0.4563,-211.8122,-151.1917,-5.6551,235.43,36.21,126.46
292601.0,0.4992,0.1326,0.3237,-223.9165,-151.1221,4.7797,235.35,36.19,126.3
292620.0,0.4329,0.1014,0.1326,-228.16,-151.8873,10.1362,235.27,36.15,126.15
292639.0,0.2613,0.1755,-0.1911,-230.3861,-158.9134,11.5275,235.24,36.0,126.07
292658.0,0.3042,0.1287,-0.2925,-228.3687,-178.2525,4.8492,235.23,35.86,126.04
292678.0,0.3705,0.0897,-0.3198,-218.4904,-191.6786,-8.5073,235.22,35.73,126.03
292698.0,0.4992,0.0039,-0.2886,-207.4991,-189.1047,-13.2377,235.2,35.63,125.99
292717.0,0.4758,0.0039,-0.3393,-197.9687,-176.096,-6.1421,235.2,35.53,125.99
292737.0,0.1482,0.1638,-0.702,-197.2035,-176.7917,6.3101,235.26,35.41,126.09
292756.0,0.0273,0.2847,-0.9672,-203.9513,-207.4699,2.6232,235.31,35.32,126.18
292775.0,0.2769,0.1794,-0.8736,-212.16,-233.0004,-2.6638,235.34,35.21,126.25
292794.0,0.4017,0.0663,-0.7176,-212.5774,-220.1308,5.1275,235.37,35.1,126.31
292814.0,0.2574,0.0546,-0.7527,-187.9513,-188.4786,14.9362,235.42,34.98,126.42
292833.0,-0.1404,0.3081,-1.1583,-165.6904,-184.0264,10.971,235.48,34.92,126.54
292852.0,-0.1209,0.3822,-1.1544,-152.2643,-202.5308,0.5362,235.53,34.85,126.65
292871.0,-0.1482,0.5148,-1.1856,-168.3339,-223.7482,0.0493,235.56,34.77,126.73
292986.0,-0.3588,0.7293,-1.0491,-151.36,-239.5395,48.2579,235.73,34.44,127.29
293005.0,-0.3471,0.5109,-1.0491,-148.7861,-222.1482,35.4579,235.76,34.39,127.38
293024.0,-0.5187,0.5304,-1.1505,-120.6817,-207.1221,31.4232,235.8,34.37,127.49
293043.0,-0.5733,0.6474,-1.0413,-101.8991,-205.6612,39.284,235.82,34.34,127.59
293177.0,-0.7293,1.1466,-0.6084,-37.273,-270.0786,97.5101,235.52,34.39,127.67
293216.0,-0.9945,1.1895,-0.7059,-74.6991,-206.5656,97.3014,235.09,34.42,127.04
293236.0,-1.0218,1.2168,-0.6825,-51.8817,-195.9917,62.4492,234.88,34.51,126.71
293255.0,-0.9516,1.2402,-0.5538,-29.6904,-183.6091,30.3101,234.68,34.56,126.41
293274.0,-1.0062,1.1739,-0.5148,-38.5252,-161.8351,25.4406,234.49,34.67,126.12
293294.0,-1.1427,0.6747,-0.7566,-66.8383,-155.5047,48.8145,234.51,34.87,126.19
293313.0,-1.0491,0.5343,-0.6825,-40.4035,-148.6178,67.0406,234.53,35.06,126.27
293332.0,-0.9984,0.6357,-0.6201,8.9878,-131.6438,58.6232,234.54,35.25,126.34
293352.0,-1.0842,0.7761,-0.6903,50.4487,-127.0525,48.4666,234.54,35.46,126.4
293409.0,-0.9867,0.858,-0.5538,132.1878,-168.3743,39.771,234.43,36.08,126.46
293428.0,-0.8034,0.8736,-0.4251,152.0139,-163.0873,31.2145,234.25,36.2,126.23
293447.0,-0.6747,0.9906,-0.2847,163.4922,-139.5743,19.8058,234.07,36.2,126.01
293466.0,-0.6357,1.0257,-0.234,139.0748,-106.183,22.9362,233.9,36.19,125.8
293485.0,-0.624,0.9516,-0.2184,99.1443,-77.6612,27.5971,233.74,36.18,125.59
293504.0,-0.5928,0.78,-0.2028,70.0661,-59.8525,26.7623,233.59,36.2,125.36
293523.0,-0.5226,0.7176,-0.1521,63.2487,-47.3308,20.5014,233.44,36.22,125.14
293542.0,-0.5577,0.6318,-0.1638,59.7704,-31.7482,18.3449,233.31,36.29,124.93
293561.0,-0.585,0.5811,-0.1872,64.7096,-24.4438,17.3014,233.19,36.4,124.75
293638.0,-0.7878,0.8073,-0.2535,38.2052,-25.0003,20.0145,232.7,36.76,123.94
293658.0,-0.8229,0.7917,-0.2847,32.2922,-32.3047,8.884,232.58,36.9,123.73
293677.0,-0.8424,0.7605,-0.3237,31.527,-36.6177,-3.916,232.49,37.08,123.57
294020.0,-0.7254,0.7098,-0.2301,3.4922,9.017,-7.3942,230.89,38.97,119.94
294039.0,-0.7644,0.6786,-0.2691,-3.4643,9.1562,-3.5681,230.81,39.14,119.78
294116.0,-0.7527,0.6591,-0.2964,2.1704,-1.3482,-16.3681,230.62,39.88,119.25
294136.0,-0.7566,0.6513,-0.2964,0.9878,-1.0699,-16.9247,230.59,40.08,119.13
294194.0,-0.7527,0.6552,-0.3003,-5.4122,2.1997,-15.1855,230.49,40.62,118.78
294213.0,-0.741,0.6747,-0.2886,-6.1774,4.7736,-16.6464,230.43,40.77,118.62
294232.0,-0.7488,0.6747,-0.3003,-10.9078,7.1388,-13.9334,230.39,40.92,118.49
294252.0,-0.7605,0.663,-0.3237,-11.6035,6.9301,-12.4029,230.39,41.08,118.42
294309.0,-0.741,0.6942,-0.3549,-9.5861,0.5301,-8.0203,230.42,41.34,118.26
294328.0,-0.7332,0.6942,-0.3393,-8.1252,-0.7221,-8.1594,230.42,41.4,118.2
294385.0,-0.741,0.6864,-0.3549,-2.56,1.991,-7.8116,230.45,41.53,118.07
294404.0,-0.7488,0.6747,-0.351,-0.5426,1.2953,-6.6986,230.48,41.61,118.06
294423.0,-0.7605,0.6669,-0.3588,2.3096,0.0431,-6.7681,230.52,41.7,118.07
294443.0,-0.7488,0.6747,-0.3354,4.7443,-0.7917,-6.5594,230.53,41.8,118.03
294467.0,-0.7449,0.6864,-0.3081,6.0661,1.0866,-6.1421,230.48,41.92,117.88
294486.0,-0.7644,0.663,-0.3237,2.5878,4.2866,-3.9855,230.49,42.04,117.84
294505.0,-0.7605,0.6552,-0.3198,3.7009,5.3997,-3.4986,230.5,42.16,117.79
294524.0,-0.7644,0.6591,-0.3081,6.1357,5.8866,-4.1247,230.48,42.29,117.72
294543.0,-0.7722,0.6708,-0.3081,6.9009,6.2344,-3.0812,230.47,42.42,117.64
294620.0,-0.7371,0.6474,-0.2847,5.3704,8.1127,4.084,230.35,42.88,117.25
294639.0,-0.741,0.6552,-0.2808,3.9791,7.417,6.6579,230.31,42.98,117.12
294658.0,-0.7488,0.6786,-0.2964,4.3965,3.7301,6.1014,230.27,43.05,117.02
294677.0,-0.7644,0.702,-0.3198,4.3965,1.1562,3.3188,230.26,43.1,116.94
294736.0,-0.7605,0.6513,-0.3432,0.4313,-4.896,2.1362,230.28,43.25,116.84
294794.0,-0.7566,0.6708,-0.3315,5.1617,0.1823,6.0319,230.4,43.41,116.9
294813.0,-0.7488,0.6825,-0.3276,5.1617,1.6431,6.4493,230.41,43.44,116.88
294832.0,-0.7449,0.6825,-0.3276,5.3009,2.7562,5.1971,230.42,43.47,116.85
294852.0,-0.7449,0.6747,-0.3237,4.2574,3.104,5.0579,230.43,43.51,116.82
294871.0,-0.7527,0.6669,-0.3276,4.953,2.9649,5.4058,230.45,43.55,116.81
294890.0,-0.7488,0.6747,-0.3237,6.4139,2.0605,5.684,230.46,43.59,116.78
294909.0,-0.7527,0.6903,-0.3276,6.2748,1.1562,6.1014,230.47,43.61,116.75
294928.0,-0.7527,0.6786,-0.3315,1.9617,0.0431,8.1884,230.48,43.64,116.73
294947.0,-0.7527,0.6786,-0.3276,1.6139,-1.4177,9.4406,230.5,43.67,116.71
294966.0,-0.7488,0.663,-0.3198,1.3357,-1.9743,10.0666,230.51,43.72,116.68
295043.0,-0.7488,0.7176,-0.3315,-2.1426,0.5997,17.9275,230.49,43.76,116.51
295062.0,-0.7449,0.7293,-0.3354,-1.3774,0.3214,15.9797,230.48,43.72,116.46
295081.0,-0.7371,0.702,-0.3276,-1.3774,1.991,13.8927,230.48,43.71,116.42
295101.0,-0.7176,0.7098,-0.3471,1.3357,5.7475,12.3623,230.5,43.66,116.42
295120.0,-0.6942,0.6903,-0.3627,3.6313,12.5649,13.5449,230.55,43.61,116.45
295140.0,-0.7059,0.6864,-0.4056,10.1009,19.7301,15.0753,230.62,43.56,116.54
295160.0,-0.7254,0.7293,-0.4446,19.7704,21.4692,13.0579,230.71,43.5,116.64
295179.0,-0.7254,0.741,-0.4758,24.9183,18.4779,10.4145,230.79,43.44,116.75
295198.0,-0.7215,0.6864,-0.5655,31.1791,15.3475,10.0666,230.91,43.39,116.92
295217.0,-0.7371,0.6708,-0.6708,53.1617,11.3823,12.9188,231.03,43.35,117.11
295332.0,-0.8424,0.5187,-1.1427,210.3096,-26.0438,12.1536,231.89,43.15,118.62
295351.0,-0.7917,0.5889,-1.1076,237.7878,-31.4699,9.7884,232.03,43.12,118.91
295370.0,-0.8073,0.7137,-1.1115,242.6574,-32.7221,-0.2986,232.16,43.08,119.18
295389.0,-0.8346,0.6903,-1.053,226.6574,-32.7917,-12.0551,232.3,43.05,119.45
295465.0,-0.9633,0.2574,-0.7332,183.3183,14.5127,-171.0812,233.02,43.41,120.67
295484.0,-0.8931,0.2262,-0.7059,145.6139,50.0605,-187.0116,233.25,43.54,120.99
295503.0,-0.9087,0.2418,-0.7449,94.6922,81.5736,-167.8812,233.49,43.66,121.3
295522.0,-0.8346,0.3198,-0.7371,36.8139,110.0257,-140.8203,233.73,43.73,121.6
295580.0,-0.741,0.0585,-0.9672,-55.9861,169.7823,-102.9768,234.57,43.85,122.53
295599.0,-0.6474,0.078,-0.9672,-43.8817,165.6779,-86.6986,234.84,43.85,122.84
295619.0,-0.5772,0.0663,-0.9399,-30.5252,160.8779,-74.4551,235.12,43.85,123.17
295638.0,-0.507,0.1404,-0.8931,-14.5252,154.3388,-65.9681,235.38,43.83,123.48
295657.0,-0.4407,0.195,-0.8424,-8.5426,147.9388,-66.2464,235.63,43.78,123.78
295677.0,-0.3666,0.2028,-0.819,-9.5861,143.6953,-63.1855,235.88,43.72,124.08
295696.0,-0.3042,0.1326,-0.8268,-17.7948,137.2257,-53.6551,236.13,43.65,124.38
295715.0,-0.2106,0.1443,-0.7722,-21.8296,132.9127,-49.2029,236.36,43.56,124.66
295734.0,-0.1599,0.1599,-0.7527,-26.2817,128.1127,-43.8464,236.59,43.46,124.94
295754.0,-0.1677,0.0936,-0.7761,-38.5948,123.591,-40.0899,236.84,43.37,125.23
295773.0,-0.1326,0.0546,-0.7488,-52.2991,111.5562,-36.0551,237.07,43.28,125.51
295792.0,-0.0819,0.1755,-0.6864,-64.473,103.4866,-34.2464,237.27,43.16,125.75
295812.0,-0.1638,0.312,-0.6942,-87.0817,106.6866,-39.1855,237.46,43.02,125.96
295831.0,-0.0975,0.4134,-0.6513,-118.1774,112.391,-50.7334,237.62,42.85,126.1
295850.0,-0.156,0.5148,-0.7254,-146.7687,120.8083,-65.8986,237.78,42.68,126.23
295869.0,-0.1716,0.5967,-0.78,-170.4904,122.617,-79.3247,237.92,42.51,126.34
295888.0,-0.1326,0.4446,-0.78,-183.2904,119.2084,-83.9855,238.1,42.36,126.49
295907.0,-0.1365,0.2379,-0.8424,-156.647,112.3214,-72.5768,238.31,42.24,126.7
295926.0,-0.2652,0.1989,-0.8892,-97.2383,94.9997,-43.2203,238.51,42.16,126.93
295945.0,-0.2808,0.1755,-0.8541,-62.1774,82.0605,-10.8029,238.7,42.07,127.17
295964.0,-0.1872,0.2418,-0.7839,5.927,58.4779,1.6493,238.86,41.96,127.4
295983.0,-0.1833,0.3783,-0.7566,50.1009,41.1562,20.6406,238.99,41.81,127.6
296175.0,0.1404,0.2262,-0.8463,-15.7774,-33.4177,27.8058,239.98,40.18,129.28
296194.0,0.0156,0.3939,-0.8892,-4.7861,-36.6177,32.3971,240.07,40.01,129.42
296214.0,-0.0234,0.3549,-0.8892,-13.9687,-51.8525,35.5275,240.15,39.86,129.58
296233.0,0.0429,0.3939,-0.9087,-25.8643,-66.6699,35.8753,240.22,39.69,129.72
296252.0,0.1443,0.3588,-0.9633,-37.76,-73.9743,27.4579,240.29,39.53,129.85
296271.0,0.1443,0.2613,-1.0257,-39.2904,-75.5047,17.8579,240.38,39.39,130.01
296290.0,0.0858,0.3315,-1.0686,-27.5339,-77.6612,12.2927,240.47,39.24,130.17
296309.0,0.0351,0.39,-1.0725,-27.047,-78.3569,9.0232,240.54,39.1,130.31
296328.0,0.1131,0.3666,-1.1076,-37.273,-75.5047,5.8232,240.63,38.96,130.46
296347.0,0.1443,0.3666,-1.1583,-43.047,-70.4264,1.8579,240.71,38.81,130.61
296366.0,0.2145,0.3315,-1.131,-42.56,-60.7569,-4.4029,240.8,38.66,130.76
296424.0,0.2067,0.4914,-1.1817,-70.3165,-35.783,-10.4551,241.05,38.16,131.16
296443.0,0.2457,0.6435,-1.0959,-79.5687,-22.6351,-14.8377,241.11,37.97,131.24
296462.0,0.2418,0.6669,-1.1193,-90.6991,-1.7656,-30.5594,241.18,37.78,131.32
296487.0,0.1443,0.3003,-1.2441,-69.6209,4.5649,-37.029,241.34,37.59,131.55
296506.0,0.1092,0.2457,-1.2675,-18.8383,-4.9656,-16.0203,241.46,37.45,131.74
296525.0,0.1014,0.4407,-1.1856,25.3357,-6.1482,-4.7508,241.55,37.29,131.91
296544.0,0.117,0.5889,-1.053,32.153,-0.1656,-4.1247,241.62,37.1,132.04
296563.0,0.1092,0.5733,-0.9906,19.7704,18.3388,-4.4029,241.69,36.91,132.16
296582.0,0.0936,0.5421,-0.9672,-5.9687,32.9475,-1.1334,241.76,36.71,132.28
296774.0,0.0975,0.7215,-0.8697,-32.2643,-17.2786,30.8666,242.2,34.62,133.05
296889.0,0.0702,0.7722,-0.9282,-26.9078,-21.1047,33.371,242.27,33.37,133.38
296908.0,0.078,0.6474,-0.9243,-37.4817,-5.383,37.4058,242.29,33.17,133.44
296927.0,0.0546,0.5109,-0.8931,-18.3513,5.9562,43.1101,242.34,32.97,133.54
296946.0,0.0507,0.4641,-0.8268,11.7009,8.1823,47.0753,242.38,32.77,133.65
296965.0,-0.0273,0.6084,-0.8424,32.7791,3.3823,41.8579,242.4,32.57,133.74
296984.0,-0.0078,0.6708,-0.8151,34.5183,-0.6525,30.7971,242.41,32.36,133.79
297003.0,0.0234,0.663,-0.7956,30.2052,0.4605,27.1101,242.42,32.15,133.85
297079.0,-0.0663,0.7137,-0.8151,4.327,11.9388,5.6145,242.44,31.31,134.01
297194.0,0.0156,0.5733,-0.7176,10.24,-9.696,-9.3421,242.54,30.12,134.4
297213.0,0.0312,0.5772,-0.7293,5.3704,-12.6177,-17.6203,242.56,29.92,134.45
297232.0,0.0546,0.585,-0.7605,-2.6991,-15.1221,-21.5855,242.58,29.73,134.51
297251.0,0.0585,0.5928,-0.7878,-5.273,-11.8525,-27.3594,242.6,29.54,134.58
297327.0,0.0702,0.6708,-0.8775,1.1965,-6.7743,-31.4638,242.69,28.77,134.84
297346.0,0.0585,0.6591,-0.8814,4.3965,-0.583,-32.6464,242.71,28.58,134.9
297365.0,0.0624,0.6474,-0.8775,8.9878,4.1475,-34.7334,242.74,28.38,134.98
297384.0,0.0546,0.6357,-0.8853,12.8835,6.2344,-36.0551,242.77,28.19,135.06
297403.0,0.0663,0.6435,-0.8658,13.44,8.2518,-37.4464,242.8,28.0,135.13
297423.0,0.0663,0.6513,-0.8424,11.2139,9.6431,-38.5594,242.82,27.8,135.19
297442.0,0.0663,0.6513,-0.8229,8.0139,12.1475,-41.6203,242.84,27.59,135.25
297461.0,0.078,0.6474,-0.8229,5.0226,12.7736,-43.9855,242.86,27.39,135.31
297480.0,0.0897,0.6474,-0.8229,4.327,13.191,-43.9855,242.88,27.19,135.37
297499.0,0.0741,0.6552,-0.8229,7.3878,14.0257,-43.1508,242.9,26.99,135.42
297616.0,-0.0546,0.6981,-0.8658,22.9009,5.4692,-23.7421,242.97,25.8,135.77
297635.0,-0.1092,0.7371,-0.8931,18.727,-0.7221,-29.7247,242.98,25.62,135.83
297654.0,-0.1092,0.78,-0.9087,10.727,-9.209,-38.4899,242.98,25.44,135.87
297674.0,-0.0858,0.8034,-0.8892,-4.5078,-8.583,-40.0899,242.97,25.24,135.89
297693.0,-0.0273,0.7488,-0.858,-15.5687,0.8779,-31.3247,242.96,25.05,135.91
297864.0,-0.1248,0.7566,-0.8073,-32.3339,31.3475,-13.8638,242.93,23.35,136.19
297903.0,-0.1209,0.6045,-0.7683,-27.8122,39.904,-1.5507,242.94,22.98,136.3
297922.0,-0.1248,0.6279,-0.741,-18.4209,39.6257,-5.029,242.93,22.8,136.33
297941.0,-0.1443,0.6747,-0.7527,-19.673,36.8431,-7.9507,242.92,22.61,136.35
297961.0,-0.1326,0.6747,-0.7605,-28.5774,32.8083,-13.7942,242.9,22.42,136.37
297980.0,-0.1482,0.6747,-0.7995,-35.7426,29.7475,-16.7855,242.9,22.24,136.41
297999.0,-0.1482,0.6474,-0.8229,-37.5513,25.2257,-17.7594,242.9,22.08,136.46
298019.0,-0.1326,0.5928,-0.819,-30.8035,21.3301,-14.1421,242.91,21.92,136.54
298038.0,-0.1248,0.5265,-0.7917,-17.9339,17.0866,-7.8116,242.93,21.78,136.65
298057.0,-0.156,0.4758,-0.8034,-2.8383,8.391,-1.4116,242.95,21.67,136.78
298077.0,-0.1638,0.4056,-0.8502,9.6835,-4.3395,7.0058,242.99,21.57,136.94
298096.0,-0.2028,0.429,-0.897,21.8574,-17.696,11.5971,243.01,21.5,137.11
298115.0,-0.1872,0.468,-0.9087,26.9357,-26.4612,8.1884,243.03,21.41,137.26
298134.0,-0.1638,0.4641,-0.9126,30.4139,-23.1917,0.1188,243.06,21.32,137.42
298154.0,-0.1521,0.4719,-0.9087,37.0226,-15.8177,-12.6116,243.08,21.21,137.58
298173.0,-0.1482,0.4836,-0.9087,44.8835,-9.7656,-23.8116,243.11,21.11,137.74
298192.0,-0.117,0.507,-0.8931,47.5965,-5.0351,-30.0029,243.14,20.99,137.88
298212.0,-0.0819,0.5889,-0.8619,47.04,0.4605,-30.1421,243.15,20.83,137.98
298326.0,-0.1248,0.6747,-1.0023,12.0487,12.8431,-11.429,243.19,19.87,138.51
298345.0,-0.1404,0.7371,-1.0101,19.9791,11.4518,-9.8986,243.18,19.72,138.59
298364.0,-0.1209,0.7917,-0.9945,15.527,14.0953,-6.2812,243.16,19.54,138.63
298383.0,-0.1131,0.7644,-0.9867,2.5183,23.2779,-0.2986,243.15,19.36,138.67
298402.0,-0.1326,0.7059,-1.0023,-2.6296,29.3997,6.0319,243.14,19.2,138.75
298421.0,-0.1443,0.6786,-0.9945,-0.1252,28.9823,9.371,243.14,19.05,138.84
298522.0,-0.1404,0.5382,-0.8112,22.1357,19.3823,22.171,243.03,18.28,139.21
298541.0,-0.1131,0.4836,-0.7605,28.953,19.7301,24.1884,243.03,18.14,139.32
298560.0,-0.1209,0.5031,-0.7527,43.7009,18.6866,22.6579,243.01,18.0,139.42
298579.0,-0.1404,0.5694,-0.7527,49.9617,13.6083,14.2406,242.98,17.86,139.49
298638.0,-0.2184,0.7215,-0.8658,7.04,7.6953,-20.3334,242.82,17.42,139.51
298657.0,-0.1989,0.6747,-0.8697,-6.4557,13.6083,-25.6203,242.79,17.3,139.56
298677.0,-0.1833,0.6006,-0.8424,-8.4035,24.0431,-24.229,242.78,17.19,139.64
298696.0,-0.1716,0.5694,-0.8073,-2.1426,30.7214,-19.2899,242.77,17.08,139.72
298715.0,-0.1326,0.5265,-0.7605,4.0487,31.0692,-18.7334,242.76,16.95,139.81
298734.0,-0.1248,0.5304,-0.7371,6.2748,27.7301,-22.2812,242.75,16.82,139.88
298754.0,-0.1014,0.5226,-0.7137,3.0052,22.8605,-29.5855,242.74,16.67,139.94
298773.0,-0.0975,0.5382,-0.7332,-1.8643,19.3823,-37.0986,242.72,16.52,140.0
298792.0,-0.0936,0.5382,-0.7449,-7.7078,15.5562,-42.8725,242.71,16.38,140.06
298812.0,-0.0663,0.5421,-0.7683,-10.4904,13.2605,-45.6551,242.71,16.22,140.13
298831.0,-0.0585,0.5733,-0.8034,-10.9078,12.217,-47.6725,242.7,16.06,140.18
298850.0,-0.0624,0.5967,-0.8268,-10.9078,11.7997,-49.3421,242.69,15.91,140.24
298869.0,-0.0507,0.624,-0.8307,-11.8817,11.6605,-53.516,242.68,15.74,140.27
298945.0,-0.1131,0.7839,-0.9321,-22.873,4.2866,-56.1594,242.55,15.08,140.26
298964.0,-0.1092,0.7488,-0.9477,-20.9252,3.5214,-47.7421,242.52,14.93,140.27
298983.0,-0.0936,0.6942,-0.936,-11.6035,2.1301,-34.8029,242.5,14.79,140.32
299002.0,-0.078,0.6318,-0.9204,2.1704,0.0431,-20.1942,242.48,14.65,140.39
299021.0,-0.0858,0.6162,-0.9087,9.3357,-2.809,-9.6899,242.46,14.51,140.47
299041.0,-0.0897,0.5811,-0.897,19.4226,-3.9917,-3.7768,242.44,14.38,140.57
299060.0,-0.1014,0.5538,-0.8931,25.1965,-5.1743,-1.3421,242.43,14.27,140.69
299079.0,-0.1287,0.5733,-0.897,28.8139,-4.6177,-1.6203,242.41,14.17,140.79
299099.0,-0.1404,0.5811,-0.897,28.1878,-2.6003,-6.2812,242.38,14.07,140.9
299118.0,-0.156,0.6123,-0.8853,22.4139,1.504,-13.1681,242.35,13.98,140.99
299137.0,-0.1755,0.6318,-0.8697,12.953,7.0692,-20.3334,242.32,13.9,141.05
299157.0,-0.1716,0.6123,-0.858,1.2661,12.9823,-25.4116,242.28,13.81,141.12
299176.0,-0.1677,0.5694,-0.8502,-5.3426,17.5736,-26.0377,242.26,13.74,141.21
299195.0,-0.156,0.5694,-0.819,-4.3687,18.9649,-24.7855,242.24,13.66,141.28
299214.0,-0.1521,0.5889,-0.7917,-3.3948,18.617,-24.5768,242.2,13.57,141.32
299234.0,-0.156,0.6045,-0.7995,-5.0643,16.8779,-23.0464,242.15,13.47,141.35
299253.0,-0.1677,0.6201,-0.8073,-11.673,13.3997,-19.429,242.09,13.38,141.37
299272.0,-0.1638,0.6045,-0.8151,-19.673,9.9214,-14.5594,242.05,13.3,141.4
299292.0,-0.1833,0.5928,-0.8424,-20.5078,8.7388,-11.7768,242.0,13.17,141.62
299349.0,-0.2106,0.6084,-0.8502,3.1443,7.7649,-9.4116,241.9,13.14,141.68
299425.0,-0.2379,0.585,-0.8775,-9.5861,6.791,-0.2986,241.72,13.07,141.91
299444.0,-0.234,0.5811,-0.8814,-8.6817,2.8257,0.1188,241.69,13.07,142.0
299463.0,-0.2457,0.5889,-0.897,-6.873,-0.583,0.4666,241.65,13.08,142.09
299482.0,-0.2301,0.5733,-0.9009,-7.6383,-3.296,3.6666,241.63,13.07,142.19
299540.0,-0.1872,0.4602,-0.9165,0.2226,-10.6003,17.4406,241.59,13.0,142.59
299559.0,-0.1794,0.4758,-0.936,5.9965,-12.5482,16.3275,241.58,12.97,142.73
299578.0,-0.1911,0.4914,-0.9672,7.9443,-15.609,12.6406,241.57,12.94,142.87
299597.0,-0.2223,0.5226,-1.0062,9.3357,-16.096,9.5797,241.56,12.92,143.01
299616.0,-0.2379,0.5577,-1.0218,10.727,-13.9395,6.8666,241.55,12.91,143.13
299692.0,-0.2145,0.5616,-0.8892,25.8922,5.7475,4.6406,241.47,12.87,143.6
299712.0,-0.1989,0.5733,-0.8619,23.6661,6.0257,-0.9942,241.43,12.83,143.67
299731.0,-0.1833,0.5694,-0.8385,18.3791,5.817,-4.0551,241.39,12.78,143.72
299750.0,-0.1677,0.5499,-0.8424,15.8748,6.791,-3.2203,241.35,12.72,143.78
299769.0,-0.1755,0.5694,-0.8229,15.7357,7.417,-2.8725,241.31,12.67,143.82
299788.0,-0.1833,0.585,-0.8112,16.0139,9.1562,-3.7768,241.25,12.62,143.83
299807.0,-0.1833,0.5967,-0.8034,15.04,10.1997,-6.629,241.19,12.57,143.81
299826.0,-0.1794,0.6006,-0.7878,12.3965,9.8518,-7.8116,241.12,12.52,143.78
299845.0,-0.1833,0.6162,-0.7878,8.5704,9.4344,-6.9768,241.04,12.47,143.72
299864.0,-0.1716,0.624,-0.7761,4.0487,7.6953,-6.1421,240.96,12.4,143.63
299883.0,-0.1677,0.6201,-0.7722,0.4313,5.4692,-5.6551,240.88,12.33,143.55
299903.0,-0.156,0.6201,-0.7761,-2.2817,3.0344,-4.3334,240.8,12.24,143.48
299922.0,-0.1443,0.6123,-0.8073,-4.7165,0.1823,-1.5507,240.74,12.15,143.45
299941.0,-0.1404,0.6045,-0.8073,-5.6209,-2.8786,1.7188,240.69,12.05,143.44
299960.0,-0.1443,0.6162,-0.8268,-5.8296,-4.5482,2.7623,240.63,11.96,143.42
299979.0,-0.156,0.624,-0.8541,-6.3165,-5.5221,2.7623,240.58,11.89,143.43
299999.0,-0.1638,0.6201,-0.8814,-8.1948,-6.009,3.5275,240.53,11.82,143.45
300018.0,-0.1677,0.6357,-0.9009,-10.0035,-6.0786,4.1536,240.48,11.75,143.47
300037.0,-0.1638,0.624,-0.9165,-11.047,-4.896,5.1275,240.44,11.69,143.52
300057.0,-0.156,0.6084,-0.9204,-10.4904,-3.0873,7.0058,240.41,11.62,143.57
300076.0,-0.1599,0.585,-0.9282,-8.2643,-0.6525,10.2753,240.38,11.56,143.65
300095.0,-0.1599,0.5694,-0.9204,-4.4383,0.7388,11.8058,240.36,11.5,143.73
300114.0,-0.1677,0.5655,-0.9204,-1.0991,1.3649,10.6232,240.34,11.46,143.82
300134.0,-0.1677,0.5538,-0.9204,-0.3339,1.017,8.1188,240.31,11.41,143.91
300153.0,-0.1599,0.5499,-0.9204,0.4313,2.4083,6.6579,240.3,11.37,144.0
300172.0,-0.1716,0.5421,-0.9204,1.4052,4.704,5.4753,240.28,11.33,144.1
300192.0,-0.1794,0.5382,-0.9126,3.2139,6.5823,3.3188,240.26,11.3,144.2
300211.0,-0.1794,0.5382,-0.897,4.3965,8.391,1.4406,240.24,11.28,144.3
300230.0,-0.1833,0.546,-0.8892,4.0487,10.0605,-0.2986,240.22,11.26,144.38
300249.0,-0.1872,0.5499,-0.8736,3.5617,10.617,-2.8029,240.19,11.24,144.45
300268.0,-0.1833,0.5655,-0.8697,3.353,10.7562,-6.0029,240.16,11.22,144.5
300287.0,-0.1833,0.5772,-0.8658,2.9357,11.2431,-7.3942,240.13,11.2,144.54
300306.0,-0.1833,0.5928,-0.858,2.24,11.3127,-8.5768,240.09,11.18,144.56
300325.0,-0.1755,0.5967,-0.8541,1.9617,10.8257,-8.5768,240.04,11.15,144.57
300364.0,-0.1677,0.5967,-0.8463,1.5443,8.8083,-7.4638,239.95,11.07,144.56
300383.0,-0.1521,0.5967,-0.8346,0.5704,7.8344,-7.3247,239.9,11.01,144.56
300402.0,-0.156,0.5967,-0.8463,-0.3339,6.9301,-7.8812,239.86,10.95,144.56
300421.0,-0.1521,0.5967,-0.8463,0.153,5.6083,-8.0203,239.82,10.89,144.56
300440.0,-0.1482,0.6006,-0.8502,0.4313,4.217,-7.3942,239.78,10.83,144.56
300459.0,-0.1521,0.6123,-0.858,-0.0557,4.217,-6.5594,239.73,10.77,144.55
300479.0,-0.1521,0.5967,-0.8619,-0.8904,3.8692,-6.4899,239.69,10.72,144.56
300503.0,-0.1443,0.5967,-0.8697,-1.5165,3.7997,-5.9334,239.64,10.64,144.59
300522.0,-0.1482,0.5889,-0.8736,-1.0991,4.2866,-5.0986,239.61,10.58,144.62
300542.0,-0.1482,0.5928,-0.8853,-0.1252,4.704,-5.029,239.58,10.52,144.65
300561.0,-0.1482,0.5967,-0.8931,-0.8904,6.0953,-5.4464,239.55,10.47,144.68
300580.0,-0.1521,0.5928,-0.897,-2.2817,7.7649,-6.0029,239.52,10.42,144.72
