t_ms,ax,ay,az,gx,gy,gz,yaw,pitch,roll
567467.0,-0.8853,0.5616,-0.0546,3.7704,3.3823,-0.9247,223.13,55.51,114.99
567486.0,-0.8892,0.5538,-0.0546,2.6574,4.7736,0.7449,222.96,55.56,114.66
567505.0,-0.8814,0.5187,-0.0273,4.8139,5.5388,1.1623,222.8,55.64,114.36
567524.0,-0.8853,0.5499,-0.0273,6.6922,5.6083,0.9536,222.62,55.69,114.04
567544.0,-0.8658,0.5655,0.0039,6.7617,5.6083,1.1623,222.42,55.73,113.7
567563.0,-0.8736,0.5577,0.0039,4.0487,8.1823,1.6493,222.22,55.77,113.37
567582.0,-0.8658,0.5382,0.0078,3.0052,9.9214,0.4666,222.04,55.82,113.05
567601.0,-0.8658,0.5187,0.0,2.6574,9.0866,2.4145,221.86,55.89,112.74
567620.0,-0.8697,0.5148,-0.0039,3.7009,8.8779,4.2927,221.69,55.96,112.42
567639.0,-0.8658,0.5382,-0.0078,5.5791,9.2257,4.9188,221.51,56.01,112.1
567658.0,-0.8814,0.5382,-0.039,6.4139,10.0605,5.1971,221.35,56.07,111.78
567677.0,-0.9048,0.5421,-0.0741,8.7096,7.2779,5.8927,221.23,56.13,111.5
567696.0,-0.8892,0.5304,-0.0741,10.9357,1.6431,6.6579,221.12,56.19,111.21
567716.0,-0.8853,0.5811,-0.0585,12.327,-1.2786,8.7449,220.96,56.19,110.87
567735.0,-0.858,0.6162,-0.0351,11.2835,1.0866,9.3014,220.77,56.16,110.53
567754.0,-0.8424,0.6318,-0.0078,9.8922,8.5301,10.0666,220.57,56.11,110.19
567773.0,-0.8385,0.6006,0.0195,7.2487,12.0083,8.7449,220.36,56.09,109.85
567792.0,-0.8619,0.5928,-0.0195,4.7443,15.904,9.2319,220.18,56.08,109.51
567811.0,-0.9009,0.6084,-0.0624,2.1009,15.6257,11.2493,220.05,56.06,109.21
567830.0,-0.8853,0.5733,-0.0234,1.1965,13.3997,8.8145,219.88,56.09,108.87
567849.0,-0.8697,0.5421,-0.0039,2.3096,12.217,6.8666,219.71,56.13,108.55
567868.0,-0.8697,0.5148,-0.0156,2.0313,11.7997,10.2753,219.56,56.21,108.24
567887.0,-0.8775,0.5109,-0.0468,6.6226,10.7562,10.3449,219.46,56.29,107.97
567906.0,-0.8697,0.546,-0.0195,13.7878,4.9823,5.8927,219.29,56.33,107.65
567925.0,-0.8268,0.6045,0.0039,12.1183,2.0605,7.771,219.09,56.28,107.3
567944.0,-0.8112,0.5811,0.0039,8.153,2.4779,12.2927,218.89,56.25,106.96
567964.0,-0.8229,0.5733,-0.0234,6.1357,1.1562,7.7014,218.72,56.22,106.62
567983.0,-0.7722,0.663,0.0,11.0052,0.8779,-1.3421,218.54,56.1,106.31
568002.0,-0.7878,0.6864,0.0078,6.2052,8.9475,-5.2377,218.37,55.99,106.01
568021.0,-0.8229,0.6669,-0.0078,0.5009,14.9997,-15.7421,218.2,55.9,105.71
568041.0,-0.8307,0.6552,-0.0312,-9.5861,18.5475,-15.3942,218.07,55.8,105.41
568060.0,-0.8151,0.6162,-0.039,-18.9774,19.104,-9.2029,217.95,55.72,105.13
568079.0,-0.8892,0.5031,-0.0897,-23.5687,17.8518,-2.3855,218.01,55.82,105.05
568099.0,-0.9048,0.5031,-0.078,-15.2904,9.0866,2.7623,218.04,55.94,104.94
568118.0,-0.8814,0.5538,-0.0507,-10.7687,1.7823,7.8406,217.96,55.98,104.69
568137.0,-0.8619,0.5694,-0.0585,-8.0557,-1.7656,11.2493,217.9,55.98,104.46
568156.0,-0.858,0.546,-0.0858,-4.7861,-2.6003,13.4058,217.92,55.99,104.34
568175.0,-0.8931,0.5421,-0.1209,1.4748,-3.296,11.7362,218.01,56.03,104.33
568194.0,-0.8463,0.6123,-0.0546,9.0574,-3.783,6.3797,217.92,55.96,104.1
568213.0,-0.8424,0.6825,-0.0507,7.8052,-1.4177,5.6145,217.82,55.83,103.87
568232.0,-0.8541,0.663,-0.0507,2.24,3.8692,3.9449,217.73,55.73,103.64
568251.0,-0.8775,0.624,-0.0585,-3.2557,3.591,4.2927,217.67,55.68,103.42
568270.0,-0.8619,0.6162,-0.0624,-2.9774,-1.0003,7.1449,217.61,55.62,103.22
568289.0,-0.8502,0.6201,-0.0624,-0.8209,-0.3743,4.7797,217.56,55.56,103.03
568309.0,-0.858,0.6006,-0.0741,-2.4209,3.0344,4.7797,217.55,55.52,102.88
568328.0,-0.8814,0.5733,-0.0936,-0.3339,3.7997,3.3188,217.6,55.54,102.81
568347.0,-0.8853,0.6045,-0.0936,5.7183,0.9475,1.4406,217.64,55.52,102.74
568371.0,-0.8775,0.6084,-0.0663,7.3183,-0.8612,-0.0899,217.6,55.49,102.53
568390.0,-0.8736,0.5928,-0.0702,7.3878,-0.8612,-1.6203,217.59,55.48,102.39
568409.0,-0.897,0.5538,-0.0858,8.8487,-0.7917,-4.1942,217.64,55.54,102.33
568428.0,-0.8619,0.5733,-0.0507,11.9791,-1.9743,-7.6725,217.58,55.55,102.13
568447.0,-0.8502,0.5967,-0.0468,9.8226,-1.6264,-7.3247,217.52,55.53,101.93
568466.0,-0.858,0.585,-0.0468,4.953,1.017,-5.8638,217.46,55.52,101.72
568485.0,-0.8463,0.5772,-0.0507,2.4487,1.991,-6.1421,217.42,55.52,101.54
568505.0,-0.8541,0.585,-0.0663,0.64,2.7562,-5.6551,217.42,55.5,101.42
568524.0,-0.8424,0.5889,-0.0741,0.0835,3.5214,-4.1942,217.43,55.47,101.32
568543.0,-0.8502,0.5616,-0.078,0.0835,4.3562,-3.1507,217.47,55.48,101.26
568564.0,-0.8424,0.5928,-0.0624,2.727,4.3562,-2.316,217.46,55.45,101.12
568583.0,-0.8346,0.5967,-0.0663,2.24,4.3562,-0.4377,217.45,55.4,101.0
568602.0,-0.8463,0.6123,-0.0663,3.0748,4.3562,-0.2986,217.45,55.35,100.88
568621.0,-0.8385,0.6045,-0.0546,3.6313,3.9388,-0.4377,217.42,55.3,100.73
568640.0,-0.8385,0.5967,-0.0468,4.6052,2.8257,-1.6203,217.37,55.27,100.56
568659.0,-0.8424,0.6006,-0.0468,6.3443,1.7127,-1.7594,217.32,55.23,100.39
568678.0,-0.858,0.585,-0.0546,7.3878,1.991,-2.0377,217.31,55.23,100.26
568698.0,-0.8424,0.6123,-0.0546,8.4313,2.1997,-1.7594,217.28,55.18,100.12
568717.0,-0.8658,0.5772,-0.0585,5.9965,1.7823,-0.9942,217.29,55.2,100.01
568736.0,-0.8541,0.5889,-0.0468,9.4052,-1.1395,-2.6638,217.25,55.2,99.86
568755.0,-0.8541,0.5967,-0.039,8.8487,-2.183,-2.1073,217.2,55.19,99.68
568774.0,-0.8424,0.5967,-0.039,5.0226,0.1127,-1.1334,217.14,55.16,99.51
568793.0,-0.8502,0.585,-0.0507,2.1704,2.9649,-0.8551,217.13,55.16,99.39
568812.0,-0.8658,0.5577,-0.0624,2.24,3.4518,-1.1334,217.16,55.21,99.33
568831.0,-0.8931,0.546,-0.0819,4.1183,2.8953,-2.3855,217.23,55.28,99.33
568850.0,-0.8775,0.5616,-0.0702,7.527,1.017,-5.029,217.27,55.32,99.3
568869.0,-0.8619,0.5694,-0.0468,4.7443,0.3214,-2.6638,217.26,55.35,99.18
568888.0,-0.8736,0.5382,-0.0468,1.127,0.391,-0.229,217.25,55.43,99.08
568907.0,-0.8697,0.5616,-0.0507,3.0052,1.5736,-0.8551,217.25,55.48,98.99
568926.0,-0.8619,0.6006,-0.039,2.0313,2.5475,-0.8551,217.21,55.45,98.84
568945.0,-0.8697,0.5772,-0.0624,-1.3774,3.6605,-1.8986,217.24,55.47,98.78
568964.0,-0.8697,0.5694,-0.0624,-0.4035,3.3127,-3.3594,217.27,55.5,98.73
568984.0,-0.858,0.5655,-0.0585,-0.473,2.8257,-3.7768,217.29,55.52,98.67
569003.0,-0.858,0.5538,-0.0585,-0.3339,2.8953,-2.1073,217.32,55.56,98.61
569022.0,-0.8697,0.5694,-0.0741,-0.1252,3.2431,0.6058,217.37,55.58,98.6
569041.0,-0.858,0.5889,-0.0624,1.5443,2.8257,-0.1594,217.39,55.56,98.55
569061.0,-0.8541,0.6162,-0.0468,2.3096,2.8953,-0.716,217.37,55.51,98.43
569080.0,-0.8697,0.5694,-0.0624,-0.96,4.3562,-0.6464,217.4,55.53,98.39
569099.0,-0.8658,0.5811,-0.0702,0.5009,4.3562,-1.3421,217.44,55.54,98.36
569119.0,-0.858,0.5967,-0.0546,2.8661,2.617,-2.6638,217.45,55.44,98.06
569310.0,-0.8736,0.546,-0.0546,0.0835,3.8692,0.3971,217.52,55.52,97.64
569329.0,-0.8853,0.5733,-0.0468,2.3096,1.6431,-1.2725,217.52,55.56,97.57
569348.0,-0.8814,0.5616,-0.0351,0.9183,-0.8612,-0.9247,217.5,55.61,97.46
569425.0,-0.8658,0.5538,-0.0702,-1.1687,1.9214,-2.5247,217.49,55.81,97.17
569444.0,-0.8619,0.5577,-0.0585,-1.1687,1.1562,1.371,217.52,55.84,97.15
569464.0,-0.8775,0.5577,-0.0624,-1.0296,2.617,1.6493,217.56,55.88,97.15
569483.0,-0.8775,0.5616,-0.0663,0.9183,3.2431,0.1188,217.61,55.91,97.15
569502.0,-0.8775,0.5616,-0.0663,0.7791,3.5214,0.0493,217.66,55.94,97.15
569522.0,-0.858,0.5616,-0.0507,1.2661,3.0344,0.4666,217.68,55.95,97.11
569541.0,-0.8658,0.5694,-0.0429,1.127,2.5475,1.4406,217.67,55.97,97.04
569560.0,-0.8697,0.5655,-0.0468,-0.4035,1.8518,1.0232,217.68,55.99,96.98
569579.0,-0.8775,0.5577,-0.0429,0.0139,0.8083,-1.5507,217.67,56.03,96.92
569599.0,-0.858,0.546,-0.0273,0.2922,-0.9308,-2.9421,217.63,56.08,96.8
569790.0,-0.3276,0.7995,0.0663,-2.6296,-37.8004,101.6145,216.58,54.83,95.15
569809.0,-0.3627,1.1076,-0.078,16.7791,-45.1743,137.0232,216.55,54.57,95.12
569828.0,-0.1716,1.3455,0.0663,38.7617,-65.7656,140.9188,216.46,54.32,95.03
569848.0,-0.1092,1.4937,0.117,49.8922,-75.6438,144.9536,216.36,54.08,94.93
569867.0,-0.0858,1.4313,0.1209,50.4487,-91.3656,148.6406,216.25,53.84,94.83
569886.0,-0.1092,1.3884,0.117,62.0661,-111.609,148.7797,216.13,53.6,94.72
570059.0,0.1209,1.9929,0.4758,174.7617,-152.3047,247.4232,214.86,51.34,93.87
570079.0,-0.0078,1.9929,0.4251,170.4487,-155.2264,259.8753,214.69,51.07,93.75
570098.0,0.0312,1.9734,0.4212,182.6226,-163.9917,257.2319,214.53,50.82,93.64
570193.0,0.1404,1.7082,-0.0663,85.8574,-46.009,243.6666,214.05,49.48,93.37
570213.0,0.0741,1.521,-0.2262,84.4661,-39.6786,248.3971,214.06,49.18,93.41
570232.0,0.1053,1.5054,-0.3354,84.8835,-44.409,261.6145,214.09,48.88,93.48
570251.0,0.0585,1.3338,-0.546,86.4139,-68.6177,274.6232,214.15,48.59,93.61
570270.0,0.1443,1.2519,-0.5616,96.0139,-105.1395,281.3014,214.2,48.31,93.73
570289.0,0.1989,1.1661,-0.5148,108.3965,-117.383,282.971,214.24,48.02,93.85
570308.0,0.2067,0.9984,-0.5343,110.6922,-130.8786,278.4492,214.28,47.73,93.98
570447.0,0.2769,0.4329,-0.5694,94.553,-55.8177,221.8927,214.88,45.87,95.22
570466.0,0.1521,0.351,-0.6045,90.3096,-50.6699,216.3275,215.04,45.68,95.48
570486.0,0.195,0.2925,-0.6006,86.0661,-46.6351,203.3884,215.21,45.48,95.75
570506.0,0.0897,0.1989,-0.7215,85.3704,-32.3743,188.5014,215.4,45.34,96.07
570525.0,0.0468,0.1287,-0.7449,90.8661,-17.209,175.9101,215.6,45.23,96.38
570544.0,-0.0624,-0.0156,-0.9087,91.4922,-20.9656,173.1275,215.81,45.17,96.7
570563.0,-0.2652,-0.1053,-0.8385,94.8313,-36.6177,167.1449,216.0,45.16,97.01
570622.0,-0.4407,-0.2262,-0.4953,100.5357,-70.1482,105.5101,216.47,45.41,97.82
570641.0,-0.585,-0.2847,-0.0858,93.927,-41.3482,86.5188,216.49,45.57,97.89
570660.0,-0.9204,-0.2457,-0.1365,69.8574,-8.9308,63.8406,216.53,45.75,97.97
570680.0,-1.3299,-0.3588,-0.2145,56.8487,-9.209,24.7449,216.59,45.95,98.05
570699.0,-1.5015,-0.351,0.0156,50.4487,-14.7047,-18.2464,216.6,46.15,98.07
570718.0,-1.5561,-0.2262,0.0468,33.2661,-13.5917,-40.0203,216.6,46.36,98.08
570737.0,-1.6575,-0.1209,0.2418,21.6487,-14.7743,-79.6029,216.57,46.57,98.04
570756.0,-1.8057,0.2301,0.7644,7.8748,-4.2699,-121.2725,216.49,46.74,97.91
570813.0,-1.9968,1.1934,0.5811,-47.4296,145.9214,-425.1334,216.33,47.35,97.48
570832.0,-1.9968,1.8681,0.2613,-59.9513,173.0518,-502.5594,216.28,47.51,97.25
570851.0,-1.9968,1.9929,0.5655,-18.7687,151.4866,-681.7595,216.22,47.72,97.07
570928.0,-1.9968,1.9929,-0.9828,-25.0296,-427.1569,-1697.0638,215.81,49.56,96.43
570947.0,-1.9968,1.9929,1.7082,-100.3687,-511.4699,-1537.9681,215.47,50.08,96.03
570967.0,-1.9968,1.9929,1.9851,-497.8643,-290.6699,-1089.829,215.21,50.45,95.56
570986.0,-1.9968,1.9929,0.195,-348.0209,13.4692,-854.5594,215.09,50.62,95.2
571005.0,-1.9968,1.9929,-1.9968,-250.8383,119.9736,-894.6986,215.39,50.87,95.45
571025.0,-1.9968,1.9929,-1.9968,-424.5426,212.9127,-893.0986,215.76,51.13,95.68
571044.0,-1.9968,1.9929,-1.9968,-536.0557,257.991,-897.1334,216.16,51.38,95.9
571063.0,-1.9968,1.9929,-1.8564,-545.934,378.8257,-760.2986,216.6,51.58,96.15
571083.0,-1.9968,1.9929,0.3666,-239.847,561.7822,-625.8986,216.74,51.68,96.04
571102.0,-1.9968,1.9929,-0.7878,193.6139,778.4083,-570.1073,217.35,51.76,96.64
571160.0,-1.9968,1.9929,-1.365,210.0313,613.6779,-364.8203,219.14,51.99,98.56
571179.0,-1.9968,1.9929,-1.0101,265.0574,634.0605,-207.6029,219.66,51.95,99.11
571198.0,-1.9968,1.9929,-1.0686,399.4574,661.2605,-94.629,220.18,51.87,99.72
571218.0,-1.9968,1.9929,-1.365,393.2661,687.5562,-49.6899,220.75,51.78,100.38
571237.0,-1.9968,1.9929,-0.2418,381.3704,609.2953,-53.3768,221.03,51.6,100.67
571256.0,-1.9968,1.9929,1.1934,312.2922,525.1214,30.0319,221.11,51.54,100.75
571275.0,-1.9968,1.9929,1.9929,234.8661,404.9823,121.3014,221.14,51.48,100.76
571294.0,-1.5561,1.8837,1.9929,135.8052,318.5127,163.8753,221.13,51.39,100.71
571313.0,-1.4898,0.546,1.9929,143.4574,255.7649,142.171,221.11,51.38,100.66
571332.0,-1.0686,0.6513,1.9929,197.0922,177.2257,58.484,221.05,51.37,100.61
571351.0,-1.014,0.4875,1.9929,148.6748,98.8953,51.4579,220.96,51.38,100.52
571370.0,-0.6357,0.2535,1.4898,101.8574,-16.3743,37.3362,220.81,51.4,100.37
571389.0,0.0897,0.2964,1.0374,41.4748,-109.5917,43.1797,220.63,51.37,100.17
571409.0,0.5616,0.1014,0.6786,-53.4817,-142.9134,67.1101,220.45,51.32,99.97
571428.0,0.7644,-0.4641,0.4992,-86.5948,-138.7395,74.8319,220.33,51.3,99.82
571448.0,0.7917,-0.7293,0.4875,-86.3861,-98.9482,28.5014,220.24,51.31,99.7
571467.0,0.9087,-0.5343,0.4407,2.1704,-28.2699,-14.0725,220.19,51.31,99.65
571486.0,0.8931,-0.3315,0.3627,61.6487,40.2518,-67.5681,220.19,51.3,99.65
571506.0,0.8541,-0.3159,0.4953,75.6313,72.5997,-77.1681,220.19,51.3,99.64
571526.0,0.7488,-0.1209,0.6825,77.7183,69.3997,-65.3421,220.16,51.3,99.61
571545.0,0.6864,0.0117,0.8385,59.6313,40.7388,-48.1594,220.1,51.28,99.54
571564.0,0.663,0.195,0.9984,37.7878,7.9736,-19.7768,220.01,51.26,99.44
571584.0,0.663,0.2106,1.0842,0.7791,-12.9656,10.484,219.9,51.22,99.3
571603.0,0.6357,-0.0195,1.0335,-19.9513,-11.0177,18.7623,219.81,51.2,99.17
571623.0,0.6591,-0.1248,0.9555,-3.6035,1.017,8.4666,219.72,51.18,99.06
571642.0,0.6786,-0.0741,0.9321,25.3357,14.2344,-2.7334,219.64,51.16,98.96
571661.0,0.6006,0.1014,0.936,36.6052,20.5649,-5.7942,219.56,51.13,98.86
571680.0,0.5655,0.195,0.9048,18.1009,19.104,-3.429,219.48,51.1,98.75
571700.0,0.4212,0.1131,0.8463,-13.4817,5.3997,9.1623,219.37,51.07,98.61
571719.0,0.4212,0.0234,0.8229,-33.3078,-9.209,8.8145,219.27,51.05,98.47
571738.0,0.4875,-0.0156,0.7917,-34.1426,-10.9482,-9.5508,219.18,51.03,98.33
571757.0,0.5343,-0.1053,0.7839,-24.6122,-10.183,-15.3247,219.09,51.02,98.21
571834.0,0.5655,-0.0195,0.8073,-7.0817,-5.0351,8.6058,218.74,50.96,97.75
571853.0,0.5928,0.0507,0.8229,-9.8643,-0.1656,4.084,218.65,50.93,97.63
571872.0,0.6162,-0.0273,0.8073,-15.7774,3.1736,-0.5073,218.57,50.9,97.52
571891.0,0.6045,-0.1209,0.7605,-22.9426,3.8692,1.5101,218.49,50.88,97.41
571910.0,0.585,-0.156,0.7293,-23.5687,3.4518,4.571,218.41,50.86,97.3
571929.0,0.5538,-0.2028,0.7371,-20.7165,1.8518,9.0927,218.34,50.85,97.18
571949.0,0.4992,-0.1716,0.7293,-17.447,0.0431,11.4579,218.25,50.83,97.07
571968.0,0.4524,-0.1326,0.7488,-17.5165,0.5997,5.8232,218.16,50.82,96.95
571988.0,0.4368,-0.1755,0.7683,-18.8383,4.2866,0.3971,218.08,50.81,96.82
572007.0,0.4251,-0.234,0.7137,-19.1861,5.817,-0.6464,218.0,50.81,96.71
572026.0,0.4134,-0.2652,0.6708,-14.3165,6.6518,-0.7855,217.92,50.81,96.6
572045.0,0.4095,-0.2379,0.6903,-5.8991,4.4257,-0.0203,217.84,50.81,96.49
572064.0,0.4251,-0.2457,0.7371,-2.4209,1.4344,0.3275,217.76,50.81,96.39
572123.0,0.4992,-0.1326,0.8385,7.3183,1.017,-2.3855,217.49,50.78,96.04
572142.0,0.5148,-0.1287,0.8463,2.3096,2.2692,-5.4464,217.41,50.77,95.93
572161.0,0.5382,-0.1755,0.8229,-1.7252,-0.8612,-4.8899,217.32,50.76,95.81
572181.0,0.546,-0.1599,0.78,-3.3948,-5.3134,-0.3681,217.23,50.75,95.7
572200.0,0.5616,-0.1521,0.7683,-5.4817,-8.7917,1.7884,217.15,50.73,95.58
572219.0,0.5733,-0.1443,0.7761,-5.8296,-8.9308,1.371,217.06,50.71,95.47
572238.0,0.5928,-0.1404,0.7761,-6.9426,-5.2438,0.0493,216.97,50.69,95.36
572257.0,0.5889,-0.1404,0.7527,-6.7339,-0.5134,-1.9681,216.89,50.67,95.25
572276.0,0.5772,-0.156,0.7449,-5.9687,1.2257,-3.0812,216.81,50.66,95.14
572295.0,0.5421,-0.1755,0.7176,-5.8991,3.2431,-5.0986,216.73,50.64,95.03
572371.0,0.5577,-0.234,0.7449,-2.6296,-1.7656,-3.2899,216.42,50.59,94.61
572395.0,0.5577,-0.1989,0.7488,-1.2383,-0.1656,-3.2203,216.32,50.58,94.47
572414.0,0.5733,-0.1911,0.7683,-0.0557,1.5736,-2.6638,216.24,50.56,94.37
572433.0,0.5772,-0.1911,0.7839,0.64,3.9388,-0.9942,216.16,50.55,94.26
572452.0,0.5577,-0.1794,0.7722,2.3791,6.9301,0.1188,216.08,50.53,94.15
572471.0,0.5382,-0.1365,0.7566,4.7443,8.5997,0.6058,216.0,50.51,94.05
572548.0,0.507,-0.1755,0.7566,-2.8383,1.2953,-5.1681,215.66,50.44,93.59
572567.0,0.507,-0.1716,0.7566,-0.3339,0.8779,-4.4725,215.58,50.43,93.48
572586.0,0.4992,-0.1638,0.7683,0.0139,0.7388,-4.2638,215.49,50.41,93.36
572606.0,0.507,-0.1599,0.78,0.2922,1.5736,-4.3334,215.4,50.4,93.25
572625.0,0.5031,-0.1599,0.7722,-0.1252,2.8257,-3.5681,215.32,50.38,93.14
572644.0,0.5148,-0.1482,0.7917,-0.6817,2.0605,-3.1507,215.23,50.37,93.02
572777.0,0.585,-0.2184,0.7488,-1.3078,-1.8351,-3.7768,214.63,50.25,92.23
572796.0,0.5889,-0.1794,0.7488,0.9183,-1.4873,-1.4812,214.55,50.23,92.12
572815.0,0.5772,-0.1599,0.7293,1.1965,-1.7656,-0.5768,214.47,50.21,92.01
572834.0,0.5694,-0.1755,0.7176,-1.7252,-2.2525,0.6058,214.39,50.19,91.9
572853.0,0.5811,-0.1872,0.741,-2.4209,-1.6264,1.0927,214.31,50.17,91.79
572872.0,0.5733,-0.1911,0.7293,-1.3078,0.3214,1.6493,214.23,50.15,91.69
572891.0,0.5694,-0.1755,0.7449,0.8487,2.8257,1.0232,214.14,50.13,91.58
572910.0,0.5655,-0.195,0.7449,1.6139,5.817,0.6753,214.07,50.11,91.47
573025.0,0.546,-0.1755,0.7527,-1.0296,2.0605,0.1188,213.57,49.98,90.81
573044.0,0.5382,-0.1872,0.7488,-1.0991,1.4344,0.1884,213.49,49.96,90.7
573064.0,0.5499,-0.1716,0.7371,0.64,1.504,-0.6464,213.4,49.94,90.58
573084.0,0.546,-0.1716,0.741,0.4313,1.9214,-1.0638,213.31,49.92,90.46
573103.0,0.546,-0.195,0.7332,0.64,2.8257,-1.2725,213.23,49.9,90.35
573123.0,0.5421,-0.1911,0.741,2.727,3.7997,-0.4377,213.15,49.88,90.24
573142.0,0.5421,-0.1716,0.7566,4.2574,4.9127,-0.0203,213.07,49.86,90.13
573161.0,0.5616,-0.1716,0.7683,4.4661,6.5127,-0.2986,212.98,49.83,90.02
573180.0,0.546,-0.1755,0.7722,5.1617,7.2083,-0.6464,212.9,49.81,89.91
573200.0,0.5382,-0.1599,0.7761,5.5791,5.817,-1.7594,212.82,49.79,89.8
573219.0,0.5226,-0.1404,0.7722,3.353,3.2431,-2.5942,212.73,49.77,89.68
573257.0,0.5226,-0.1443,0.7488,-1.5165,-1.9047,-2.1073,212.56,49.72,89.45
573276.0,0.546,-0.1833,0.7527,0.0835,-2.1134,-0.3681,212.47,49.7,89.34
573295.0,0.5499,-0.1599,0.7566,1.6835,-1.4177,0.6753,212.39,49.68,89.22
