t_ms,ax,ay,az,gx,gy,gz,yaw,pitch,roll
628773.0,-0.8502,0.5889,-0.0078,1.8922,2.4779,1.1623,215.83,54.56,90.27
628797.0,-0.8463,0.6006,0.0,2.8661,2.0605,0.1884,215.83,54.56,90.26
628816.0,-0.8385,0.6123,0.0039,2.6574,1.991,-0.1594,215.81,54.54,90.24
628836.0,-0.8424,0.5967,-0.0039,1.127,2.9649,0.1188,215.82,54.54,90.25
628855.0,-0.8463,0.5811,0.0,1.753,2.7562,0.3275,215.81,54.57,90.24
628874.0,-0.858,0.585,-0.0039,2.7965,1.8518,0.1884,215.82,54.61,90.25
628893.0,-0.8463,0.6045,-0.0039,3.4226,1.0866,-0.1594,215.82,54.6,90.25
628913.0,-0.8385,0.6123,0.0039,2.4487,1.4344,-0.229,215.8,54.58,90.23
628932.0,-0.8424,0.6045,0.0039,0.9878,2.4779,0.2579,215.79,54.57,90.22
628951.0,-0.8463,0.5967,0.0039,1.4748,2.6866,0.5362,215.78,54.58,90.2
628970.0,-0.8424,0.6045,-0.0039,2.5183,2.0605,-0.0203,215.78,54.57,90.21
628989.0,-0.8346,0.6123,0.0039,2.3791,2.1997,-0.0899,215.77,54.54,90.19
629008.0,-0.8346,0.6084,0.0,1.3357,1.7823,-0.0899,215.77,54.52,90.19
629027.0,-0.8346,0.6006,0.0,0.5009,2.1301,-0.1594,215.76,54.52,90.18
629046.0,-0.8463,0.5967,-0.0039,0.7791,2.4083,0.5362,215.77,54.53,90.19
629065.0,-0.8424,0.5967,-0.0039,1.9617,1.8518,0.4666,215.78,54.53,90.2
629084.0,-0.8502,0.6045,0.0,2.1009,1.7127,1.0232,215.77,54.53,90.19
629103.0,-0.8541,0.6123,-0.0039,2.3791,1.3649,0.9536,215.78,54.53,90.2
629123.0,-0.8463,0.6162,0.0,2.4487,0.8779,0.1884,215.77,54.51,90.19
629142.0,-0.8424,0.6123,0.0039,1.5443,0.8083,0.1884,215.76,54.49,90.18
629161.0,-0.8463,0.6006,-0.0039,1.127,1.2257,0.3275,215.76,54.5,90.18
629180.0,-0.8385,0.6045,-0.0078,1.2661,1.6431,0.6753,215.78,54.49,90.2
629200.0,-0.8502,0.6045,-0.0117,1.4052,1.991,0.9536,215.8,54.49,90.23
629219.0,-0.8541,0.6084,-0.0039,1.6835,2.0605,0.3971,215.81,54.49,90.23
629238.0,-0.8502,0.6006,-0.0078,1.9617,2.1997,0.6753,215.82,54.5,90.25
629258.0,-0.8502,0.6006,-0.0039,2.4487,2.0605,0.4666,215.82,54.51,90.26
629277.0,-0.8424,0.6084,0.0,2.7965,1.9214,0.1884,215.82,54.5,90.25
629296.0,-0.8424,0.6006,0.0,2.5878,2.4083,0.1188,215.81,54.5,90.24
629315.0,-0.8424,0.5967,-0.0039,1.6835,2.9649,0.884,215.82,54.5,90.25
629335.0,-0.8424,0.5889,0.0039,2.1009,3.1736,0.8145,215.8,54.52,90.23
629354.0,-0.8541,0.5889,0.0039,2.1009,3.2431,0.884,215.79,54.55,90.22
629373.0,-0.8541,0.6006,0.0,2.5878,2.5475,0.3275,215.79,54.56,90.21
629393.0,-0.8463,0.6045,0.0078,2.1704,2.1997,0.2579,215.76,54.55,90.18
629412.0,-0.8463,0.5928,0.0039,2.1704,2.2692,1.1623,215.75,54.57,90.17
629431.0,-0.8502,0.5889,0.0,2.727,2.1301,1.1623,215.75,54.59,90.16
629450.0,-0.8463,0.6123,-0.0039,2.8661,2.4779,0.4666,215.75,54.57,90.17
629469.0,-0.8463,0.6123,-0.0039,1.3357,3.2431,0.3275,215.76,54.56,90.18
629488.0,-0.8502,0.6006,-0.0039,1.1965,3.1736,-0.229,215.77,54.57,90.19
629508.0,-0.8541,0.5928,-0.0039,1.9617,2.8257,-0.0899,215.77,54.59,90.19
629527.0,-0.8463,0.6006,0.0,2.9357,2.0605,-0.0203,215.77,54.59,90.19
629546.0,-0.8424,0.6084,0.0,2.6574,2.4779,0.3971,215.77,54.57,90.19
629565.0,-0.8541,0.6006,-0.0039,2.5878,3.0344,0.6058,215.77,54.58,90.19
629585.0,-0.8424,0.5928,0.0,3.1443,3.0344,0.3971,215.77,54.59,90.19
629604.0,-0.8463,0.6006,-0.0039,3.2835,3.1736,1.371,215.78,54.59,90.2
629623.0,-0.8463,0.6045,-0.0039,2.727,3.104,1.5101,215.78,54.59,90.21
629642.0,-0.8541,0.6045,-0.0039,3.0748,3.3823,0.4666,215.79,54.59,90.21
629662.0,-0.8463,0.6084,-0.0039,3.0052,3.3823,-0.3681,215.8,54.58,90.22
629681.0,-0.8463,0.5967,0.0039,2.7965,3.104,-0.0899,215.78,54.59,90.2
629700.0,-0.8463,0.5928,0.0,2.727,2.8257,1.0232,215.78,54.6,90.2
629719.0,-0.8463,0.5967,0.0,2.8661,2.9649,1.1623,215.78,54.61,90.2
629738.0,-0.858,0.5967,-0.0156,3.0052,2.6866,0.9536,215.81,54.62,90.23
629757.0,-0.8463,0.5928,0.0,3.84,1.9214,0.3971,215.8,54.63,90.23
629776.0,-0.8385,0.6162,0.0078,4.6748,0.8083,0.1884,215.78,54.6,90.2
629795.0,-0.8424,0.6162,0.0078,3.7704,1.2953,0.6753,215.75,54.58,90.17
629814.0,-0.8424,0.6084,0.0039,2.3096,1.991,0.6753,215.74,54.57,90.16
629833.0,-0.8424,0.6045,-0.0039,1.6835,2.4779,0.4666,215.75,54.56,90.16
629852.0,-0.8385,0.6084,0.0,1.3357,2.4083,1.0232,215.75,54.54,90.16
629871.0,-0.8424,0.6006,-0.0156,0.64,2.6866,1.5797,215.78,54.54,90.2
629890.0,-0.8541,0.5967,-0.0156,1.4052,2.6866,0.5362,215.81,54.55,90.23
629909.0,-0.8502,0.6006,-0.0117,1.3357,2.8953,0.2579,215.83,54.56,90.26
629928.0,-0.8619,0.5967,-0.0078,1.753,1.8518,-0.0899,215.84,54.58,90.28
629947.0,-0.858,0.6084,-0.0039,3.2835,1.6431,0.5362,215.85,54.58,90.28
629966.0,-0.8619,0.6123,-0.0039,2.3096,2.5475,0.7449,215.85,54.58,90.28
629985.0,-0.8736,0.6123,-0.0117,2.8661,3.3127,0.3275,215.87,54.59,90.31
630005.0,-0.8736,0.6162,-0.0117,3.353,3.2431,0.4666,215.89,54.6,90.34
630024.0,-0.8814,0.6201,-0.0117,3.84,3.6605,0.884,215.91,54.61,90.36
630043.0,-0.8814,0.6279,0.0,5.1617,2.5475,0.0493,215.9,54.61,90.35
630062.0,-0.8892,0.6435,-0.0156,4.4661,2.8953,1.1623,215.93,54.59,90.38
630082.0,-0.8853,0.6396,-0.0312,4.327,3.6605,0.2579,215.98,54.58,90.45
630196.0,-0.9087,0.6201,-0.117,12.5357,20.0083,2.2058,216.64,54.54,91.26
630215.0,-0.9321,0.6279,-0.1677,14.6226,29.0518,4.8492,216.8,54.55,91.45
630234.0,-0.9438,0.624,-0.2028,18.5878,36.2866,4.084,216.97,54.57,91.67
630501.0,-0.7332,0.4836,-0.2223,-4.0904,44.5649,1.3014,219.55,54.37,94.87
630520.0,-0.7449,0.4836,-0.2379,2.5183,39.3475,-2.8029,219.74,54.39,95.09
630539.0,-0.7488,0.4836,-0.2223,6.4139,33.504,-4.1942,219.92,54.41,95.31
630558.0,-0.7332,0.5187,-0.2145,3.1443,27.4518,-1.6899,220.09,54.4,95.52
630577.0,-0.7527,0.5187,-0.2457,-0.2643,23.5562,1.1623,220.27,54.4,95.74
630596.0,-0.7488,0.5343,-0.2379,0.0139,20.9823,-1.2029,220.44,54.39,95.94
630615.0,-0.741,0.5187,-0.2379,1.9617,17.017,-2.7334,220.61,54.38,96.15
630634.0,-0.741,0.5226,-0.2262,1.9617,14.5823,-3.916,220.78,54.38,96.36
630653.0,-0.7449,0.5187,-0.2379,0.153,11.1736,-2.8725,220.94,54.37,96.56
630672.0,-0.7449,0.5304,-0.2457,2.3791,6.304,-3.7768,221.11,54.36,96.76
630691.0,-0.7722,0.5577,-0.2769,3.4922,1.6431,-2.7334,221.27,54.35,96.97
630710.0,-0.7683,0.5577,-0.2808,2.3096,-2.6699,-2.8725,221.43,54.33,97.17
630729.0,-0.7644,0.5967,-0.2769,-1.2383,-5.4525,-2.1768,221.59,54.3,97.37
630868.0,-0.7917,0.5889,-0.3588,-4.647,-11.9221,-1.6899,222.79,54.17,98.87
631173.0,-0.8229,0.5967,-0.2691,-5.9687,-17.4177,5.4753,225.08,53.77,101.79
631192.0,-0.819,0.5928,-0.273,-2.8383,-17.0003,4.571,225.2,53.75,101.95
631211.0,-0.8229,0.6006,-0.2691,-0.6817,-16.7221,3.8058,225.32,53.73,102.11
631230.0,-0.819,0.6123,-0.2652,0.0139,-15.3308,2.5536,225.43,53.7,102.26
631249.0,-0.8346,0.6006,-0.2691,-1.6557,-12.8264,1.9275,225.55,53.69,102.42
631268.0,-0.8424,0.6006,-0.273,-0.7513,-12.1308,0.8145,225.67,53.67,102.58
631288.0,-0.8346,0.6006,-0.2613,-1.1687,-11.296,0.884,225.79,53.65,102.73
631307.0,-0.8424,0.5811,-0.2496,-2.0035,-10.4612,2.2058,225.9,53.65,102.88
631327.0,-0.8502,0.5616,-0.2496,-0.1948,-10.4612,2.2058,226.01,53.67,103.03
631346.0,-0.8463,0.585,-0.2379,2.5183,-10.6699,1.3014,226.12,53.67,103.18
631365.0,-0.8541,0.5967,-0.2145,2.4487,-10.3917,1.0927,226.2,53.67,103.29
631384.0,-0.858,0.5967,-0.1989,2.3096,-10.183,1.5101,226.26,53.68,103.38
631404.0,-0.8502,0.6045,-0.1989,1.1965,-9.4177,2.0666,226.33,53.67,103.48
631423.0,-0.8541,0.6084,-0.1911,-0.8209,-8.096,1.371,226.38,53.66,103.55
631442.0,-0.8424,0.6045,-0.2028,-2.8383,-8.3047,0.3971,226.44,53.65,103.65
631461.0,-0.8502,0.6045,-0.1911,-4.2991,-8.0264,0.3971,226.49,53.65,103.72
631595.0,-0.8463,0.624,-0.1911,-7.0122,-5.4525,0.884,226.78,53.57,104.16
631614.0,-0.8502,0.6123,-0.1872,-7.5687,-4.7569,1.3014,226.82,53.56,104.22
631633.0,-0.8619,0.6123,-0.1833,-7.1513,-3.4351,2.4145,226.85,53.56,104.27
631768.0,-0.8463,0.6474,-0.1716,-4.0904,-1.6264,1.9275,227.02,53.36,104.56
631787.0,-0.8424,0.6552,-0.1638,-4.0209,-1.0003,1.1623,226.99,53.3,104.54
631806.0,-0.8502,0.6435,-0.1755,-4.8557,-0.7221,0.8145,227.0,53.27,104.56
631884.0,-0.8541,0.6201,-0.1599,-1.0991,2.1997,-0.5768,227.0,53.21,104.61
631903.0,-0.8541,0.624,-0.1599,0.8487,2.9649,-1.4116,226.98,53.21,104.6
631923.0,-0.8463,0.624,-0.1482,1.0574,2.6866,-2.6638,226.94,53.2,104.56
631942.0,-0.8346,0.6045,-0.1482,-0.0557,3.2431,-2.3855,226.91,53.2,104.53
631961.0,-0.8307,0.5967,-0.1326,0.2226,4.4953,-1.9681,226.84,53.22,104.47
631980.0,-0.8346,0.6045,-0.1443,0.9183,5.6779,-1.7594,226.81,53.23,104.44
631999.0,-0.8424,0.6006,-0.1365,0.7791,5.3997,-2.4551,226.76,53.25,104.39
632075.0,-0.8424,0.6123,-0.0975,2.3096,3.3127,-3.1507,226.28,53.31,103.85
632094.0,-0.8346,0.5967,-0.1053,2.0313,3.104,-2.6638,226.16,53.34,103.72
632113.0,-0.8463,0.6045,-0.117,1.753,2.7562,-2.316,226.07,53.37,103.62
632132.0,-0.8463,0.6006,-0.117,2.5183,1.0866,-2.5942,226.0,53.4,103.54
632151.0,-0.8424,0.5928,-0.117,4.8835,-1.209,-3.1507,225.92,53.43,103.46
632170.0,-0.8307,0.6162,-0.117,6.2052,-2.183,-4.6116,225.84,53.42,103.37
632189.0,-0.8268,0.6123,-0.1014,3.6313,-1.4177,-3.916,225.71,53.41,103.23
632208.0,-0.8385,0.6162,-0.1209,1.753,-0.3743,-3.0812,225.65,53.41,103.16
632228.0,-0.8463,0.5967,-0.1287,1.127,-0.3047,-2.5247,225.62,53.43,103.12
632247.0,-0.8463,0.5928,-0.1287,2.727,-0.7221,-2.316,225.59,53.46,103.1
632266.0,-0.8463,0.6006,-0.1326,3.7009,-1.3482,-2.2464,225.56,53.48,103.08
632285.0,-0.8424,0.6084,-0.1287,4.1878,-0.8612,-2.8029,225.53,53.49,103.04
632304.0,-0.8385,0.6084,-0.1326,4.2574,-0.3743,-1.8986,225.5,53.49,103.02
632421.0,-0.8424,0.6045,-0.117,2.4487,-2.183,-1.5507,225.07,53.66,102.53
632440.0,-0.8385,0.5967,-0.1092,2.0313,-2.4612,-1.3421,225.01,53.68,102.46
632459.0,-0.8502,0.6045,-0.1209,1.1965,-1.5569,-0.3681,224.97,53.69,102.43
632478.0,-0.8541,0.6084,-0.1248,0.7791,-0.8612,-0.3681,224.95,53.7,102.4
632554.0,-0.8697,0.6006,-0.1248,-1.0991,3.3127,0.9536,224.88,53.78,102.33
632573.0,-0.8736,0.5889,-0.1248,-1.1687,3.2431,1.5101,224.87,53.83,102.32
632592.0,-0.8619,0.585,-0.1248,-0.1948,2.7562,1.5797,224.86,53.87,102.32
632611.0,-0.8541,0.6006,-0.1287,0.5009,2.7562,1.7188,224.85,53.88,102.31
632630.0,-0.8424,0.585,-0.1209,-0.0557,2.8257,0.6753,224.84,53.9,102.29
632650.0,-0.8541,0.5889,-0.1131,-0.1252,2.617,1.0927,224.8,53.93,102.25
632669.0,-0.8424,0.5928,-0.0975,1.1965,2.3388,1.0232,224.71,53.96,102.15
632688.0,-0.8502,0.6006,-0.117,1.4052,2.5475,1.9971,224.68,53.96,102.12
632708.0,-0.8463,0.6045,-0.117,1.4052,2.4083,2.971,224.65,53.96,102.08
632727.0,-0.858,0.6045,-0.1209,1.8922,2.6866,2.971,224.63,53.97,102.06
632746.0,-0.858,0.6084,-0.1092,4.0487,1.7127,0.8145,224.58,53.98,102.0
632766.0,-0.8424,0.6279,-0.0975,3.84,0.4605,1.371,224.49,53.95,101.89
632786.0,-0.8424,0.6006,-0.1092,2.5183,1.2257,2.6232,224.44,53.95,101.84
632805.0,-0.8424,0.5967,-0.1053,2.6574,1.8518,2.3449,224.39,53.96,101.78
632830.0,-0.8463,0.6084,-0.0975,2.1704,2.8257,2.484,224.3,53.96,101.67
632849.0,-0.8502,0.5967,-0.1092,1.3357,3.4518,2.1362,224.26,53.98,101.63
632868.0,-0.8619,0.585,-0.1053,1.127,3.4518,1.7188,224.23,54.02,101.59
632887.0,-0.8697,0.5772,-0.117,1.8922,1.9214,1.5797,224.23,54.07,101.58
633023.0,-0.8424,0.5694,-0.1053,0.9878,2.8257,-1.5507,223.96,54.3,101.26
633042.0,-0.8502,0.5811,-0.1014,1.6139,3.2431,-0.9247,223.92,54.33,101.23
633061.0,-0.8502,0.585,-0.1053,1.9617,3.1736,-0.5768,223.9,54.35,101.2
633081.0,-0.8463,0.6084,-0.0975,2.5878,2.617,-0.8551,223.85,54.34,101.13
633138.0,-0.8385,0.6006,-0.1053,1.8922,2.4779,-0.0203,223.74,54.31,101.01
633157.0,-0.8307,0.6006,-0.1014,2.3791,2.8953,0.1884,223.71,54.3,100.96
633176.0,-0.8424,0.6006,-0.1014,2.5878,3.0344,1.0232,223.68,54.29,100.92
633195.0,-0.8463,0.6006,-0.1014,3.0748,2.5475,1.5797,223.65,54.29,100.89
633214.0,-0.8502,0.6006,-0.1014,3.9791,1.504,0.6058,223.61,54.29,100.85
633252.0,-0.8541,0.6084,-0.0975,3.2835,1.017,0.1188,223.53,54.28,100.74
633367.0,-0.858,0.5733,-0.1131,3.1443,1.1562,-1.3421,223.5,54.42,100.71
633387.0,-0.858,0.5811,-0.1092,4.1183,1.0866,-1.2725,223.5,54.45,100.71
633406.0,-0.8541,0.5889,-0.1092,3.9096,1.5736,-1.2725,223.5,54.46,100.71
633426.0,-0.8502,0.5928,-0.1053,4.2574,1.5736,-0.7855,223.48,54.47,100.69
633445.0,-0.8463,0.5928,-0.1014,3.84,2.2692,-0.0899,223.46,54.47,100.66
633464.0,-0.858,0.585,-0.1053,4.4661,1.7823,-0.6464,223.45,54.5,100.65
633483.0,-0.8541,0.6123,-0.1014,3.4922,1.7823,-0.2986,223.42,54.48,100.62
633503.0,-0.8541,0.5928,-0.1131,2.727,0.9475,-1.6899,223.43,54.49,100.62
633522.0,-0.8463,0.5811,-0.1131,2.5183,1.4344,-1.5507,223.44,54.5,100.64
633541.0,-0.8541,0.5733,-0.1092,2.1704,1.9214,-0.8551,223.45,54.54,100.64
633561.0,-0.858,0.5811,-0.1053,2.5878,2.4779,-0.8551,223.44,54.56,100.63
633580.0,-0.858,0.585,-0.1014,2.5878,2.5475,-0.9247,223.42,54.59,100.61
633618.0,-0.8619,0.5694,-0.1131,0.4313,2.7562,-0.5768,223.43,54.65,100.62
633751.0,-0.8346,0.5811,-0.0975,4.1878,0.9475,-3.0116,223.37,54.89,100.54
633790.0,-0.8073,0.5811,-0.1014,6.4139,-0.7917,-0.716,223.34,54.84,100.51
633810.0,-0.7761,0.6006,-0.0975,7.8748,-1.9047,1.2319,223.31,54.76,100.47
633829.0,-0.7683,0.6279,-0.0975,10.1704,-3.0177,5.1275,223.27,54.65,100.42
633848.0,-0.7371,0.6396,-0.1053,12.7443,-4.5482,9.5101,223.25,54.51,100.4
633868.0,-0.7059,0.7605,-0.117,16.0139,-6.5656,16.7449,223.21,54.31,100.37
633887.0,-0.6552,0.8775,-0.1404,15.04,-7.2612,21.4058,223.19,54.1,100.35
633906.0,-0.5499,0.9555,-0.1053,7.9443,-3.8525,17.9971,223.14,53.88,100.29
633925.0,-0.5421,0.975,-0.1131,-5.8296,-0.5134,28.6406,223.1,53.66,100.24
634039.0,-0.5616,1.014,-0.0351,-10.9774,-24.1656,116.6406,222.55,52.24,99.55
634058.0,-0.5577,0.9633,-0.0273,3.84,-31.609,122.0666,222.44,51.99,99.42
634096.0,-0.585,1.0881,-0.1326,39.6661,-61.2438,134.171,222.3,51.48,99.3
634115.0,-0.5148,1.1739,-0.0468,53.7878,-73.3482,128.1188,222.19,51.23,99.2
634172.0,-0.4056,1.1037,-0.0039,101.2313,-83.7134,123.8058,221.82,50.51,98.88
634288.0,-0.0156,1.4781,-0.0702,98.5878,-69.1047,177.9275,221.22,48.97,98.48
634307.0,-0.0117,1.4664,-0.078,86.8313,-61.0351,185.9275,221.15,48.71,98.44
634327.0,0.1365,1.5327,-0.0273,89.4748,-64.9308,191.0753,221.07,48.45,98.38
634346.0,0.1833,1.5639,-0.0429,82.3096,-64.096,201.1623,220.99,48.18,98.33
634365.0,0.1638,1.5327,-0.0897,68.8835,-62.7743,209.9275,220.92,47.91,98.29
634384.0,0.1638,1.5522,-0.0702,58.1704,-62.6351,213.4753,220.85,47.65,98.24
634708.0,0.3471,0.4992,-0.6474,46.6922,-60.4786,154.2058,220.63,43.29,98.86
634766.0,0.5109,0.4251,-0.6591,45.0226,-53.9395,136.884,220.91,42.66,99.4
634824.0,0.429,0.3471,-0.7488,43.0748,-28.9656,119.0058,221.25,42.08,100.0
634848.0,0.3744,0.2847,-0.78,42.5878,-16.096,111.0058,221.42,41.86,100.3
634868.0,0.3939,0.2379,-0.8346,39.8748,-6.7743,109.8927,221.58,41.7,100.55
634887.0,0.429,0.2262,-0.9165,40.7791,-7.7482,112.3971,221.73,41.54,100.8
634906.0,0.4719,0.1638,-0.8892,45.7878,-17.4873,115.8058,221.87,41.38,101.03
634926.0,0.4056,0.0546,-0.9555,47.6661,-28.409,118.9362,222.02,41.24,101.3
634945.0,0.4719,0.0858,-0.8814,60.327,-46.0786,110.5188,222.15,41.1,101.54
634964.0,0.6123,0.1404,-0.8307,64.153,-46.6351,110.6579,222.25,40.94,101.75
635060.0,0.234,-0.1209,-0.8268,69.3009,-14.5656,117.2666,222.92,40.25,102.96
635079.0,-0.0078,-0.2925,-0.9321,67.1443,-16.7917,103.8406,223.09,40.23,103.26
635098.0,0.0195,-0.2925,-0.6825,78.553,-26.5308,92.8493,223.25,40.22,103.54
635117.0,-0.0663,-0.3159,-0.5343,77.0922,-23.0525,79.7014,223.4,40.25,103.81
635136.0,-0.2535,-0.3003,-0.4485,69.3704,-15.0525,71.4927,223.54,40.34,104.06
635155.0,-0.4095,-0.3315,-0.3393,59.6313,-16.096,52.7101,223.64,40.48,104.25
635174.0,-0.585,-0.3588,-0.2262,51.0052,-25.3482,27.3884,223.7,40.64,104.37
635193.0,-0.7722,-0.2574,-0.0117,45.5096,-24.5134,-10.3855,223.71,40.82,104.4
635212.0,-0.9633,-0.2496,0.2301,20.1878,0.2518,-54.3507,223.69,40.99,104.38
635232.0,-1.326,-0.1404,0.3861,8.9878,31.6953,-123.7768,223.68,41.18,104.34
635251.0,-1.5873,0.0039,0.5421,-8.6122,72.7388,-191.8116,223.69,41.39,104.29
635270.0,-1.9968,0.1443,0.741,-25.7948,134.4431,-268.3334,223.71,41.6,104.25
635289.0,-1.9968,0.1092,0.9516,-31.2904,167.904,-354.5247,223.76,41.83,104.21
635308.0,-1.9968,0.2379,0.8151,-66.0035,214.5127,-409.3421,223.83,42.07,104.18
635327.0,-1.9968,0.9906,0.9165,-45.4122,213.9562,-574.629,223.89,42.33,104.12
635479.0,-1.9968,1.9929,-1.9968,-180.5078,90.4083,-782.4899,224.13,45.1,103.48
635498.0,-1.9968,1.9929,-1.9968,-390.3165,179.1736,-825.2725,224.45,45.32,103.68
635517.0,-1.9968,1.9929,-1.9968,-730.3513,434.8257,-833.342,224.9,45.52,103.86
635536.0,-1.9968,1.8018,-1.9968,-876.4382,756.4953,-718.4203,225.48,45.67,104.1
635555.0,-1.9968,1.0569,-1.1622,-575.9165,917.2605,-541.029,226.12,45.85,104.47
635574.0,-1.9968,1.9383,-0.2184,-201.0991,919.9736,-397.0986,226.35,45.91,104.44
635593.0,-1.9968,1.9929,0.0,-3.3948,849.4344,-319.3942,226.56,45.94,104.45
635651.0,-1.9968,1.9929,-1.1778,482.0313,645.817,-31.116,227.8,45.73,105.82
635670.0,-1.9968,1.9929,-0.7878,510.7617,570.8953,-3.9855,228.12,45.63,106.29
635689.0,-1.9968,1.9929,-0.3783,496.2922,510.6518,41.7884,228.14,45.54,106.38
635709.0,-1.9968,1.9929,-0.1209,478.7617,446.0257,55.7014,228.1,45.48,106.38
635728.0,-1.8525,1.9929,0.4134,481.4748,420.5648,62.171,228.11,45.43,106.43
635747.0,-1.6146,1.9929,0.9087,364.6052,382.8605,69.0579,228.12,45.37,106.46
635767.0,-1.2363,1.9929,1.5405,242.727,327.9736,95.5623,228.12,45.29,106.44
635786.0,-1.1427,1.3221,1.6341,159.3183,271.8344,141.3362,228.09,45.23,106.39
635805.0,-0.741,0.6513,1.6107,216.5704,226.6866,99.7362,228.07,45.21,106.38
635825.0,-0.39,0.5772,1.6263,291.84,206.791,55.284,228.05,45.18,106.39
635844.0,-0.2379,0.936,1.7745,233.127,191.7649,37.7536,228.02,45.14,106.37
635863.0,-0.2145,0.7644,1.7784,144.5009,144.3909,36.8492,227.98,45.12,106.31
635883.0,0.039,0.3354,1.6731,78.6226,82.6866,51.4579,227.91,45.1,106.23
635902.0,0.2184,-0.234,1.4898,52.953,31.2083,63.0753,227.84,45.09,106.14
635921.0,0.4017,-0.4446,1.3611,63.1791,4.0779,49.0927,227.77,45.09,106.07
635940.0,0.5343,-0.1287,1.2948,70.4835,0.0431,16.3971,227.7,45.08,105.99
635959.0,0.4446,-0.0936,1.1505,45.9965,-6.6351,-8.9942,227.62,45.08,105.9
635978.0,0.5577,-0.2106,1.1427,34.8661,-16.7917,-23.5334,227.55,45.09,105.82
635997.0,0.6942,-0.3159,1.0374,8.4313,-36.2004,-23.0464,227.48,45.1,105.73
636016.0,0.7878,-0.3705,0.8892,3.1443,-42.0438,-26.1073,227.41,45.1,105.65
636035.0,0.8151,-0.3042,0.6981,11.2139,-34.3917,-26.5942,227.35,45.1,105.58
636054.0,0.8931,-0.2847,0.5538,24.8487,-26.8786,-30.6986,227.3,45.08,105.53
636073.0,0.9204,-0.1287,0.4836,37.7183,-18.6699,-23.6725,227.26,45.05,105.48
636092.0,0.9087,-0.0897,0.5226,28.1878,-10.7395,-10.6638,227.21,45.01,105.43
636111.0,0.8892,-0.1287,0.5499,12.1183,-4.896,9.4406,227.17,44.97,105.37
636130.0,0.8541,-0.1599,0.5967,7.4574,3.9388,15.5623,227.12,44.94,105.31
636149.0,0.858,-0.1599,0.6903,15.5965,12.7736,11.3884,227.08,44.9,105.25
636208.0,0.7332,-0.0936,0.7449,21.5096,35.6605,0.6058,226.95,44.81,105.08
636227.0,0.6669,-0.0858,0.7449,4.1878,34.2692,3.5971,226.91,44.79,105.01
636246.0,0.5928,-0.1404,0.702,-9.0991,33.0866,3.2493,226.86,44.77,104.93
636265.0,0.546,-0.1716,0.7293,-9.8643,29.9562,-5.2377,226.82,44.75,104.86
636324.0,0.5499,-0.2457,0.7722,-0.473,19.591,-11.9855,226.68,44.74,104.63
636382.0,0.5733,-0.2067,0.7137,-9.0991,5.3997,-10.316,226.51,44.71,104.38
636401.0,0.5967,-0.2067,0.7293,-2.4209,1.504,-13.0986,226.46,44.7,104.3
636420.0,0.6396,-0.1911,0.7449,3.4226,-5.383,-12.2638,226.4,44.69,104.22
636439.0,0.7098,-0.1326,0.8034,-5.273,-13.7308,0.5362,226.33,44.67,104.13
636458.0,0.6942,-0.1872,0.7449,-17.3774,-14.009,15.8406,226.27,44.64,104.04
636515.0,0.624,-0.2184,0.7098,-8.1252,2.5475,22.2406,226.09,44.57,103.79
636534.0,0.5655,-0.2574,0.6981,-0.5426,10.8953,17.8579,226.04,44.56,103.71
636553.0,0.4953,-0.2652,0.6708,4.1183,12.9127,13.9623,225.99,44.55,103.64
636572.0,0.4758,-0.2184,0.6786,1.9617,10.0605,5.3362,225.93,44.54,103.56
636591.0,0.4797,-0.2418,0.6669,-10.7687,5.3301,0.1884,225.88,44.53,103.48
636611.0,0.507,-0.2964,0.6864,-15.36,1.1562,-5.1681,225.82,44.53,103.4
636630.0,0.5421,-0.3471,0.7059,-12.8557,-2.2525,-6.5594,225.77,44.52,103.32
636649.0,0.5577,-0.3666,0.7332,-8.8904,-3.5743,-5.6551,225.71,44.52,103.24
636669.0,0.5811,-0.3354,0.7254,-6.0383,-3.5047,-3.9855,225.66,44.52,103.16
636688.0,0.5889,-0.3003,0.6942,-5.3426,-2.8786,-4.0551,225.6,44.51,103.08
636707.0,0.585,-0.2886,0.663,-5.9687,-2.6003,-3.916,225.55,44.5,103.01
636726.0,0.5928,-0.312,0.6474,-7.7774,-2.183,-3.0116,225.5,44.5,102.93
636746.0,0.6084,-0.2925,0.6435,-3.7426,-2.0438,-1.5507,225.44,44.48,102.86
636765.0,0.6435,-0.2301,0.6669,5.3009,-2.3917,-2.0377,225.39,44.47,102.78
636785.0,0.6474,-0.2067,0.6903,5.5096,-1.3482,-0.7855,225.33,44.45,102.7
636804.0,0.6318,-0.2457,0.6825,-1.2383,-0.7917,2.2058,225.28,44.43,102.63
636823.0,0.6318,-0.3003,0.6825,-5.9687,-1.2786,6.2406,225.22,44.42,102.55
636842.0,0.6162,-0.312,0.6669,-4.9252,-0.4438,8.1188,225.17,44.4,102.48
636867.0,0.6045,-0.3198,0.6825,-2.1426,1.991,8.884,225.1,44.39,102.38
636886.0,0.5811,-0.2964,0.702,1.6139,2.4779,8.3971,225.05,44.38,102.31
636905.0,0.5733,-0.2808,0.7215,4.5357,2.5475,7.6319,224.99,44.36,102.23
636925.0,0.5733,-0.2652,0.7176,5.0226,2.0605,7.0753,224.94,44.35,102.15
636944.0,0.585,-0.2535,0.7332,4.4661,0.4605,6.3101,224.88,44.34,102.07
636963.0,0.5733,-0.2379,0.7137,2.8661,-0.1656,5.1971,224.82,44.32,101.99
636982.0,0.5772,-0.2613,0.6903,0.0835,-2.1134,4.2927,224.76,44.31,101.91
637001.0,0.585,-0.2808,0.6825,-0.8904,-5.0351,4.7797,224.71,44.29,101.83
637096.0,0.6006,-0.2847,0.6747,4.2574,-2.5308,4.8492,224.42,44.22,101.45
637173.0,0.5772,-0.2496,0.702,5.7878,-1.4177,1.9275,224.2,44.17,101.14
637192.0,0.5928,-0.2652,0.6981,2.3096,-0.7221,-1.6899,224.14,44.16,101.06
637211.0,0.5928,-0.273,0.6981,3.2835,-0.2351,-3.3594,224.09,44.15,100.99
637288.0,0.6396,-0.2262,0.702,3.2139,-4.0612,-0.3681,223.85,44.09,100.67
637346.0,0.6474,-0.2691,0.6747,-3.8817,-1.5569,2.4145,223.68,44.03,100.43
637385.0,0.6435,-0.2769,0.6708,2.4487,0.1823,1.0232,223.58,43.99,100.28
637519.0,0.5889,-0.2769,0.6591,-5.1339,2.6866,-4.1247,223.2,43.88,99.73
637538.0,0.6006,-0.2769,0.6513,-4.5774,2.6866,-5.0986,223.15,43.87,99.65
637557.0,0.6045,-0.2847,0.6513,-3.047,1.8518,-4.1942,223.09,43.85,99.57
637576.0,0.6084,-0.2886,0.6552,-1.7948,0.8083,-2.7334,223.04,43.84,99.5
637595.0,0.6162,-0.273,0.6786,0.3617,0.6692,-2.1073,222.99,43.82,99.42
637614.0,0.6201,-0.2613,0.6864,1.0574,1.6431,-1.0638,222.93,43.81,99.34
637633.0,0.6162,-0.2691,0.6981,-0.6122,2.8953,0.6058,222.88,43.79,99.27
637652.0,0.6084,-0.273,0.7098,-1.6557,3.3127,1.7884,222.82,43.77,99.19
637671.0,0.5967,-0.273,0.7059,-2.4904,3.1736,1.6493,222.77,43.76,99.11
637690.0,0.6006,-0.2652,0.702,-1.3078,1.7823,-0.4377,222.71,43.74,99.03
637709.0,0.6006,-0.2613,0.702,-1.2383,0.1127,-2.7334,222.65,43.73,98.94
637728.0,0.6045,-0.2613,0.6903,-2.073,-2.2525,-4.1247,222.6,43.71,98.86
637747.0,0.6123,-0.2457,0.6903,-5.4817,-3.9917,-5.0986,222.54,43.7,98.78
637805.0,0.663,-0.3198,0.624,-7.36,-4.9656,-2.316,222.38,43.64,98.54
637824.0,0.663,-0.3159,0.6162,-2.9078,-4.2699,0.0493,222.32,43.62,98.47
637882.0,0.6474,-0.3159,0.624,3.6313,1.3649,5.1971,222.17,43.57,98.25
637901.0,0.6435,-0.2925,0.6435,5.8574,2.3388,5.8232,222.12,43.55,98.18
637920.0,0.6435,-0.2691,0.6474,4.6052,2.8953,5.2666,222.06,43.52,98.1
637939.0,0.6552,-0.2808,0.6513,1.4052,3.3823,3.6666,222.01,43.5,98.03
637958.0,0.6474,-0.3198,0.6435,0.5009,3.1736,3.7362,221.96,43.48,97.96
637977.0,0.6474,-0.3276,0.6396,4.3965,1.2953,2.9014,221.91,43.47,97.89
637996.0,0.6513,-0.2964,0.663,6.4835,0.4605,2.8319,221.86,43.45,97.81
638015.0,0.6591,-0.2613,0.6669,6.1357,0.9475,3.5971,221.8,43.42,97.74
638034.0,0.6396,-0.2496,0.663,4.3965,0.8779,4.571,221.75,43.4,97.66
638053.0,0.6435,-0.2613,0.6747,1.9617,-0.3743,6.5884,221.69,43.38,97.58
638072.0,0.6357,-0.2769,0.6864,0.5009,-0.1656,8.3971,221.64,43.36,97.5
638091.0,0.6201,-0.3159,0.6747,-0.8209,1.7823,9.9971,221.58,43.34,97.43
638110.0,0.5967,-0.312,0.6552,1.8922,2.4083,10.484,221.53,43.32,97.35
638129.0,0.5811,-0.2925,0.6591,3.2139,1.4344,10.1362,221.48,43.3,97.27
638148.0,0.5694,-0.273,0.6669,1.6835,-0.0264,9.371,221.42,43.28,97.19
