t_ms,ax,ay,az,gx,gy,gz,yaw,pitch,roll
182924.0,0.2028,-0.9204,0.3315,2.7779,-1.8113,-12.2755,308.52,-11.31,-66.9
182938.0,0.2028,-0.9126,0.3315,2.6387,-1.2548,-11.6494,308.52,-11.31,-66.92
182952.0,0.1911,-0.9126,0.3315,2.4996,-0.2113,-10.1885,308.53,-11.31,-66.94
182966.0,0.2028,-0.9087,0.3276,2.5692,-0.42,-9.8407,308.53,-11.32,-66.95
182980.0,0.1989,-0.9087,0.3276,2.7083,-0.6983,-10.0494,308.54,-11.32,-66.97
182994.0,0.195,-0.9087,0.3276,2.6387,-1.4635,-10.6755,308.54,-11.33,-66.99
183008.0,0.2028,-0.9126,0.3237,2.6387,-1.8113,-11.1624,308.55,-11.33,-67.01
183022.0,0.2106,-0.9126,0.3198,2.2909,-1.3939,-11.0929,308.56,-11.34,-67.03
183036.0,0.1989,-0.9087,0.3237,2.0822,-1.1157,-10.5363,308.56,-11.34,-67.05
183050.0,0.2028,-0.9048,0.3198,1.9431,-0.9766,-9.4929,308.57,-11.35,-67.07
183064.0,0.1989,-0.9087,0.3159,2.0127,-0.5592,-9.4929,308.58,-11.35,-67.09
183078.0,0.1872,-0.9048,0.3042,2.2214,-0.6287,-9.8407,308.58,-11.35,-67.11
183092.0,0.1911,-0.9087,0.3198,2.9866,-2.4374,-10.3972,308.59,-11.35,-67.13
183106.0,0.195,-0.9126,0.3276,3.3344,-2.507,-10.1885,308.6,-11.36,-67.15
183120.0,0.1989,-0.9087,0.3198,3.3344,-2.3679,-9.8407,308.6,-11.36,-67.17
183134.0,0.2106,-0.9048,0.3237,2.9866,-1.9505,-9.7711,308.61,-11.37,-67.18
183148.0,0.2067,-0.9009,0.3159,2.8474,-1.1157,-9.8407,308.61,-11.37,-67.2
183162.0,0.2106,-0.9009,0.312,2.0822,-0.0026,-10.6755,308.62,-11.38,-67.22
183176.0,0.195,-0.9048,0.3042,1.804,0.4843,-11.232,308.63,-11.39,-67.25
183190.0,0.2028,-0.9087,0.3003,1.5953,-0.0722,-11.719,308.63,-11.39,-67.27
183204.0,0.2028,-0.9126,0.2964,1.804,-1.6722,-11.5798,308.64,-11.4,-67.29
183218.0,0.2106,-0.9204,0.3081,2.0822,-1.9505,-11.232,308.65,-11.4,-67.32
183232.0,0.1989,-0.9126,0.312,2.3605,-2.6461,-9.9103,308.65,-11.41,-67.34
183246.0,0.1911,-0.9126,0.3237,2.3605,-3.1331,-9.3537,308.66,-11.41,-67.36
183260.0,0.1911,-0.9087,0.3276,2.2909,-3.3418,-9.2842,308.67,-11.41,-67.37
183274.0,0.1911,-0.9126,0.3315,1.804,-2.7157,-9.3537,308.67,-11.41,-67.39
183288.0,0.1989,-0.9087,0.3198,1.5257,-1.8113,-9.7016,308.68,-11.41,-67.41
183302.0,0.1911,-0.9048,0.3081,1.3866,0.2756,-10.8842,308.68,-11.41,-67.43
183316.0,0.1872,-0.9165,0.3042,1.6648,0.1365,-11.6494,308.69,-11.41,-67.45
183330.0,0.1911,-0.9204,0.3159,2.0127,-1.6026,-12.0668,308.7,-11.42,-67.47
183344.0,0.1989,-0.9204,0.3237,2.0127,-1.8809,-11.3016,308.7,-11.42,-67.49
183358.0,0.195,-0.9204,0.3198,2.0127,-1.7418,-10.3972,308.71,-11.42,-67.51
183372.0,0.2028,-0.9204,0.3276,2.2214,-2.2287,-9.8407,308.72,-11.42,-67.52
183386.0,0.2067,-0.9126,0.3276,2.43,-2.9939,-9.8407,308.72,-11.43,-67.54
183400.0,0.2067,-0.9126,0.3354,2.4996,-4.0374,-9.5624,308.73,-11.44,-67.55
183414.0,0.1989,-0.9165,0.3276,2.8474,-4.0374,-9.9103,308.73,-11.44,-67.56
183428.0,0.195,-0.9165,0.3276,2.9866,-3.62,-10.3972,308.74,-11.44,-67.58
183442.0,0.195,-0.9165,0.3276,3.0561,-2.2983,-10.745,308.75,-11.44,-67.6
183456.0,0.1989,-0.9126,0.3237,2.8474,-0.9766,-10.6755,308.75,-11.44,-67.61
183470.0,0.2028,-0.9126,0.3198,2.6387,1.8061,-10.9537,308.76,-11.45,-67.63
183489.0,0.2028,-0.9165,0.3237,2.3605,2.0147,-10.8146,308.76,-11.45,-67.65
183503.0,0.1989,-0.9087,0.3276,2.0822,0.6234,-10.0494,308.77,-11.46,-67.66
183517.0,0.2028,-0.9048,0.3198,2.1518,-0.42,-9.3537,308.77,-11.46,-67.68
183531.0,0.1989,-0.9009,0.312,2.4996,-2.2287,-8.5885,308.78,-11.47,-67.7
183545.0,0.2028,-0.9009,0.3198,2.9866,-2.9244,-8.7972,308.79,-11.47,-67.71
183559.0,0.2067,-0.9048,0.3276,3.5431,-3.4113,-9.0059,308.79,-11.48,-67.73
183573.0,0.2028,-0.9087,0.3198,4.517,-2.9939,-9.4929,308.8,-11.48,-67.74
183587.0,0.2028,-0.9126,0.3276,4.8648,-2.7157,-9.8407,308.8,-11.48,-67.76
183601.0,0.1989,-0.9126,0.3315,4.5866,-2.1592,-10.2581,308.81,-11.49,-67.77
183615.0,0.2145,-0.9048,0.351,3.9605,-1.8113,-10.119,308.81,-11.5,-67.77
183629.0,0.2067,-0.9048,0.3432,3.0561,-1.1157,-10.3277,308.82,-11.5,-67.78
183643.0,0.1989,-0.9048,0.3276,2.0822,0.6234,-11.1624,308.82,-11.5,-67.79
183657.0,0.1989,-0.9048,0.3159,1.8735,1.18,-11.9277,308.83,-11.51,-67.81
183671.0,0.2028,-0.9048,0.3159,1.0387,2.4321,-12.1363,308.83,-11.51,-67.83
183685.0,0.1989,-0.9126,0.3042,1.1083,2.9887,-11.6494,308.84,-11.52,-67.85
183699.0,0.2028,-0.9165,0.312,1.2474,2.5713,-9.9798,308.84,-11.52,-67.87
183713.0,0.1911,-0.9087,0.312,2.43,1.1104,-9.0755,308.85,-11.52,-67.88
183727.0,0.2028,-0.9087,0.3042,3.1257,-0.4896,-8.7276,308.85,-11.52,-67.9
183741.0,0.2028,-0.9087,0.3081,4.03,-2.7853,-8.3798,308.86,-11.53,-67.92
183755.0,0.2028,-0.9087,0.3042,4.0996,-3.62,-8.7276,308.87,-11.53,-67.94
183769.0,0.2028,-0.9048,0.3198,3.9605,-4.6635,-9.0755,308.87,-11.54,-67.95
183783.0,0.2028,-0.9087,0.3237,3.404,-4.5939,-9.0755,308.88,-11.54,-67.97
183797.0,0.195,-0.9126,0.3159,3.1257,-3.62,-9.0755,308.89,-11.54,-67.98
183811.0,0.195,-0.9087,0.312,2.5692,-1.8113,-10.1885,308.89,-11.54,-68.0
183825.0,0.195,-0.9048,0.312,2.2909,-0.6287,-10.8146,308.9,-11.55,-68.02
183839.0,0.195,-0.9087,0.3159,2.2214,0.3452,-11.0929,308.9,-11.55,-68.03
183853.0,0.1989,-0.9165,0.3081,2.0127,0.5539,-10.9537,308.91,-11.55,-68.05
183867.0,0.1911,-0.9087,0.3042,1.9431,-0.0026,-10.5363,308.91,-11.55,-68.07
183881.0,0.1911,-0.9087,0.3198,2.43,-1.8809,-9.9798,308.92,-11.55,-68.09
183895.0,0.195,-0.9087,0.3198,2.4996,-2.7157,-9.8407,308.93,-11.55,-68.1
183909.0,0.1989,-0.9126,0.3276,2.4996,-2.7157,-10.0494,308.93,-11.55,-68.11
183923.0,0.1989,-0.9087,0.3354,2.0127,-1.9505,-10.119,308.94,-11.56,-68.12
183937.0,0.195,-0.9126,0.3354,1.6648,-1.3939,-10.3277,308.94,-11.56,-68.13
183951.0,0.1989,-0.9165,0.3237,1.317,-0.0722,-10.6059,308.95,-11.56,-68.14
183965.0,0.195,-0.9165,0.3159,1.317,0.693,-10.4668,308.95,-11.56,-68.16
183979.0,0.1872,-0.9126,0.3159,1.5257,1.1104,-10.6059,308.96,-11.56,-68.18
183993.0,0.1872,-0.9126,0.312,2.0127,0.5539,-10.745,308.96,-11.56,-68.19
184007.0,0.195,-0.9126,0.312,2.4996,-0.0722,-11.0929,308.97,-11.56,-68.21
184021.0,0.2028,-0.9126,0.3081,3.3344,-1.3939,-11.3711,308.97,-11.56,-68.22
184035.0,0.2028,-0.9126,0.3198,3.4735,-1.6722,-10.8146,308.98,-11.57,-68.24
184049.0,0.1989,-0.9165,0.3198,3.3344,-1.9505,-9.8407,308.98,-11.57,-68.25
184063.0,0.2028,-0.9165,0.3198,2.8474,-2.2983,-9.4929,308.99,-11.57,-68.27
184077.0,0.1989,-0.9126,0.312,2.917,-2.3679,-9.2842,308.99,-11.57,-68.28
184091.0,0.195,-0.9126,0.3081,2.9866,-2.6461,-9.7016,309.0,-11.57,-68.3
184105.0,0.195,-0.9204,0.3081,3.2648,-3.0635,-9.9798,309.01,-11.58,-68.32
184119.0,0.195,-0.9126,0.312,3.3344,-3.2026,-10.0494,309.01,-11.58,-68.33
184133.0,0.1911,-0.9126,0.3198,3.0561,-2.507,-10.119,309.02,-11.58,-68.34
184147.0,0.1911,-0.9087,0.3159,2.9866,-1.7418,-10.0494,309.02,-11.58,-68.36
184161.0,0.195,-0.9087,0.3081,2.6387,-0.9766,-9.9798,309.03,-11.58,-68.37
184175.0,0.1872,-0.9126,0.3081,2.4996,-0.6983,-10.0494,309.04,-11.58,-68.39
184189.0,0.1911,-0.9048,0.3081,2.43,-1.3244,-10.4668,309.04,-11.58,-68.41
184203.0,0.195,-0.9087,0.312,2.4996,-1.4635,-10.6755,309.05,-11.58,-68.42
184217.0,0.1989,-0.9087,0.312,2.4996,-1.8113,-10.745,309.05,-11.58,-68.44
184231.0,0.2067,-0.9126,0.3159,2.2909,-2.0896,-10.3277,309.06,-11.59,-68.45
184245.0,0.1989,-0.9126,0.312,2.2214,-1.8113,-10.119,309.06,-11.59,-68.46
184259.0,0.1989,-0.9165,0.3198,2.2214,-2.02,-9.7711,309.07,-11.59,-68.48
184273.0,0.195,-0.9126,0.3198,2.2214,-2.2983,-9.632,309.07,-11.59,-68.49
184287.0,0.195,-0.9126,0.3198,2.2214,-2.2983,-9.7016,309.08,-11.59,-68.5
184301.0,0.195,-0.9126,0.312,2.7083,-2.2983,-10.0494,309.08,-11.59,-68.52
184315.0,0.1872,-0.9087,0.3237,3.0561,-2.0896,-10.3277,309.09,-11.59,-68.53
184329.0,0.1911,-0.9126,0.312,3.2648,-0.907,-10.6755,309.1,-11.59,-68.54
184343.0,0.1989,-0.9126,0.3159,3.3344,-1.1853,-10.6755,309.1,-11.59,-68.55
184357.0,0.2028,-0.9087,0.312,3.1953,-1.3244,-10.6755,309.11,-11.6,-68.57
184371.0,0.2067,-0.9048,0.3159,2.6387,-1.9505,-11.0929,309.11,-11.6,-68.58
184385.0,0.2067,-0.9126,0.3237,2.2214,-2.2287,-11.3711,309.12,-11.61,-68.59
184399.0,0.2028,-0.9165,0.3237,2.0822,-1.8809,-11.232,309.12,-11.61,-68.6
184413.0,0.1989,-0.9126,0.3237,2.1518,-1.6722,-11.0233,309.12,-11.61,-68.61
184427.0,0.195,-0.9087,0.3198,2.2214,-1.3939,-10.8842,309.13,-11.62,-68.62
184441.0,0.1989,-0.9087,0.3159,2.6387,-1.2548,-11.0929,309.13,-11.62,-68.64
184455.0,0.195,-0.9126,0.3198,2.6387,-1.3244,-11.232,309.14,-11.62,-68.65
184469.0,0.1989,-0.9165,0.3237,2.7779,-1.8809,-10.9537,309.14,-11.62,-68.66
184483.0,0.195,-0.9126,0.3198,2.7779,-1.8113,-10.3277,309.15,-11.62,-68.67
184497.0,0.195,-0.9126,0.3237,2.917,-1.3939,-9.5624,309.15,-11.62,-68.68
184511.0,0.1989,-0.9087,0.3159,2.9866,-0.7679,-9.7711,309.16,-11.62,-68.69
184525.0,0.195,-0.9087,0.3159,2.9866,-0.42,-10.0494,309.16,-11.63,-68.7
184539.0,0.195,-0.9165,0.312,3.1953,-0.7679,-10.3972,309.17,-11.63,-68.72
184553.0,0.195,-0.9204,0.3081,3.3344,-1.3939,-10.3972,309.17,-11.63,-68.73
184567.0,0.195,-0.9204,0.312,3.4735,-2.02,-10.1885,309.18,-11.63,-68.75
184581.0,0.1989,-0.9165,0.3081,3.4735,-3.2722,-9.7016,309.19,-11.63,-68.76
184595.0,0.2028,-0.9087,0.3081,3.5431,-3.62,-9.4929,309.19,-11.63,-68.77
184609.0,0.2028,-0.9009,0.312,3.1257,-2.9939,-9.2842,309.2,-11.64,-68.79
184623.0,0.195,-0.9009,0.3081,2.917,-2.8548,-9.4929,309.2,-11.64,-68.8
184637.0,0.1989,-0.9048,0.3081,2.7083,-3.2026,-10.119,309.21,-11.64,-68.81
184651.0,0.2028,-0.9048,0.3159,2.2909,-2.5766,-11.0233,309.21,-11.65,-68.82
184665.0,0.1989,-0.9009,0.3159,2.0127,-2.1592,-11.232,309.22,-11.65,-68.83
184679.0,0.195,-0.9087,0.3159,1.6648,-1.8809,-11.3016,309.22,-11.65,-68.84
184693.0,0.1911,-0.9087,0.312,1.804,-2.02,-11.3711,309.23,-11.65,-68.86
184707.0,0.1989,-0.9087,0.3198,2.0822,-2.2983,-11.3016,309.23,-11.65,-68.87
184721.0,0.2028,-0.9126,0.3198,2.1518,-2.1592,-10.4668,309.24,-11.66,-68.88
184735.0,0.2028,-0.9165,0.3237,2.1518,-1.3939,-9.9798,309.24,-11.66,-68.89
184749.0,0.195,-0.9126,0.3198,2.3605,-0.6287,-9.9103,309.25,-11.66,-68.9
184763.0,0.1989,-0.9126,0.3081,2.43,-0.8374,-10.1885,309.25,-11.66,-68.91
184777.0,0.195,-0.9087,0.3081,2.3605,-1.3244,-10.5363,309.26,-11.66,-68.92
184791.0,0.1989,-0.9126,0.3081,2.2214,-2.5766,-11.3016,309.26,-11.66,-68.94
184805.0,0.195,-0.9165,0.3159,2.0127,-3.0635,-11.3711,309.27,-11.66,-68.95
184819.0,0.195,-0.9204,0.3159,2.0127,-3.8983,-10.6755,309.27,-11.66,-68.96
184833.0,0.1989,-0.9126,0.312,2.0822,-4.107,-10.6059,309.28,-11.67,-68.97
184847.0,0.195,-0.9126,0.312,2.3605,-4.1766,-10.6755,309.28,-11.67,-68.98
184861.0,0.1989,-0.9126,0.3159,2.6387,-3.4113,-10.4668,309.29,-11.67,-69.0
184875.0,0.1989,-0.9087,0.3237,2.5692,-2.9244,-10.0494,309.29,-11.67,-69.0
184889.0,0.1911,-0.9087,0.3198,2.3605,-2.0896,-10.3277,309.3,-11.67,-69.01
184903.0,0.1872,-0.9126,0.3081,2.4996,-2.2983,-10.8842,309.3,-11.67,-69.02
184917.0,0.1872,-0.9165,0.3003,2.8474,-2.2983,-11.5103,309.31,-11.67,-69.04
184931.0,0.1872,-0.9126,0.2964,3.4735,-2.4374,-11.3711,309.31,-11.67,-69.06
184945.0,0.195,-0.9087,0.3042,3.2648,-2.2287,-10.8146,309.32,-11.67,-69.07
184959.0,0.2067,-0.9087,0.3003,2.4996,-1.4635,-10.0494,309.32,-11.67,-69.08
184973.0,0.2106,-0.9048,0.3003,1.8735,-0.8374,-10.2581,309.33,-11.68,-69.1
184987.0,0.2184,-0.9126,0.2964,1.2474,-0.5592,-11.3016,309.34,-11.69,-69.12
185001.0,0.2106,-0.9126,0.3003,0.204,-0.9766,-11.6494,309.34,-11.69,-69.13
185015.0,0.2145,-0.9165,0.3003,-0.283,-1.2548,-11.6494,309.35,-11.7,-69.15
185029.0,0.2145,-0.9165,0.2964,-0.4917,-1.8809,-11.7885,309.35,-11.71,-69.16
185043.0,0.2106,-0.9243,0.3042,-0.1439,-2.2983,-11.719,309.36,-11.72,-69.18
185057.0,0.2106,-0.9126,0.312,0.4127,-2.7853,-11.0233,309.36,-11.72,-69.19
185071.0,0.2067,-0.9048,0.3159,1.1083,-4.107,-10.745,309.37,-11.73,-69.2
185085.0,0.2067,-0.9009,0.3159,1.0387,-4.5244,-10.3277,309.37,-11.73,-69.21
185099.0,0.2028,-0.8931,0.3081,1.2474,-5.1505,-10.1885,309.38,-11.74,-69.22
185113.0,0.2028,-0.897,0.3042,1.5257,-5.4287,-10.4668,309.38,-11.74,-69.23
185127.0,0.2028,-0.9087,0.3003,1.8735,-5.6374,-10.3972,309.39,-11.74,-69.24
185141.0,0.2028,-0.9087,0.3042,1.5953,-6.5418,-10.745,309.4,-11.75,-69.26
185155.0,0.2028,-0.9126,0.3003,1.5953,-6.1244,-11.1624,309.4,-11.75,-69.27
185169.0,0.2106,-0.9165,0.3081,0.6909,-5.6374,-12.6929,309.41,-11.76,-69.28
185183.0,0.2106,-0.9165,0.312,0.2735,-5.7766,-13.7363,309.41,-11.76,-69.29
185197.0,0.2067,-0.9165,0.3159,0.1344,-5.7766,-15.2668,309.42,-11.77,-69.3
185211.0,0.2145,-0.9243,0.3237,-0.1439,-4.8026,-15.6842,309.42,-11.78,-69.31
185225.0,0.2067,-0.9087,0.3237,0.1344,-2.9244,-15.6842,309.43,-11.78,-69.32
185239.0,0.2145,-0.9165,0.3159,-0.4221,0.4147,-15.1972,309.43,-11.79,-69.33
185253.0,0.2262,-0.9204,0.312,-0.6308,2.0843,-14.9885,309.43,-11.8,-69.34
185267.0,0.2301,-0.9165,0.3159,-0.7004,4.1713,-15.2668,309.44,-11.81,-69.35
185281.0,0.2223,-0.9165,0.312,-0.283,3.6843,-14.919,309.44,-11.82,-69.36
185295.0,0.2223,-0.9165,0.3003,-0.0743,1.8756,-14.7103,309.44,-11.83,-69.37
185309.0,0.2106,-0.9009,0.3003,0.204,-0.6287,-14.5711,309.45,-11.84,-69.39
185323.0,0.2106,-0.9087,0.3003,0.1344,-1.0461,-14.3624,309.45,-11.85,-69.4
185337.0,0.2145,-0.9126,0.3042,-0.0743,0.2061,-13.5972,309.46,-11.85,-69.41
185351.0,0.2184,-0.9204,0.2847,0.6909,0.4843,-13.1103,309.46,-11.86,-69.43
185365.0,0.2184,-0.9204,0.2925,1.3866,-0.0722,-12.4842,309.47,-11.87,-69.45
185379.0,0.2223,-0.9165,0.2847,2.0822,-1.8113,-11.719,309.47,-11.88,-69.47
185393.0,0.2145,-0.9204,0.2847,2.1518,-2.4374,-11.5798,309.48,-11.88,-69.48
185407.0,0.2145,-0.9165,0.2925,2.1518,-3.1331,-12.2755,309.48,-11.89,-69.5
185421.0,0.2184,-0.9243,0.3042,1.4561,-2.4374,-12.4842,309.49,-11.9,-69.51
185435.0,0.2184,-0.9243,0.3081,1.0387,-1.6722,-12.5537,309.49,-11.9,-69.52
185449.0,0.2106,-0.9243,0.3003,0.4822,-0.907,-12.2059,309.5,-11.91,-69.54
185463.0,0.2184,-0.9243,0.3042,0.5518,-0.907,-11.9277,309.5,-11.92,-69.55
185477.0,0.2106,-0.9282,0.3042,0.7605,-0.2809,-10.6755,309.51,-11.92,-69.56
185496.0,0.2067,-0.9243,0.3003,1.2474,0.3452,-10.0494,309.52,-11.92,-69.58
185510.0,0.2262,-0.9204,0.2964,1.3866,1.6669,-9.632,309.52,-11.93,-69.6
185524.0,0.2067,-0.9165,0.2847,1.6648,2.0843,-9.632,309.53,-11.93,-69.61
185538.0,0.2106,-0.9126,0.2769,2.0127,0.4147,-10.119,309.53,-11.94,-69.63
185552.0,0.2145,-0.9126,0.273,2.2214,-0.42,-10.4668,309.54,-11.95,-69.65
185566.0,0.2184,-0.9204,0.2925,2.2214,-1.1853,-10.6059,309.54,-11.95,-69.67
185580.0,0.2145,-0.9243,0.2964,2.0127,-1.8809,-9.8407,309.55,-11.96,-69.68
185594.0,0.2145,-0.9204,0.3042,2.0822,-1.6722,-8.7276,309.55,-11.96,-69.69
185608.0,0.2184,-0.9126,0.3081,1.6648,0.6234,-7.6146,309.56,-11.97,-69.7
185622.0,0.2145,-0.9165,0.2847,1.1779,2.2234,-7.3363,309.56,-11.97,-69.72
185636.0,0.2028,-0.9165,0.2808,0.9692,3.1278,-8.5885,309.57,-11.98,-69.74
185650.0,0.2106,-0.9165,0.2808,1.0387,2.5017,-9.7711,309.57,-11.98,-69.76
185664.0,0.2106,-0.9126,0.2769,1.1779,1.7365,-10.5363,309.58,-11.98,-69.77
185678.0,0.2106,-0.9165,0.2808,1.5257,0.0669,-11.4407,309.59,-11.99,-69.79
185692.0,0.2106,-0.9204,0.2847,1.5953,-0.3505,-11.5798,309.59,-11.99,-69.81
185706.0,0.2067,-0.9165,0.2847,1.6648,-0.3505,-11.0233,309.6,-12.0,-69.82
185720.0,0.2067,-0.9243,0.2964,2.2214,0.1365,-10.5363,309.6,-12.0,-69.84
185734.0,0.2145,-0.9243,0.2925,2.1518,0.4147,-9.9103,309.61,-12.0,-69.85
185748.0,0.2145,-0.9204,0.2925,1.804,-0.2113,-9.8407,309.61,-12.01,-69.87
185762.0,0.2106,-0.9204,0.2847,1.804,-0.6287,-9.9798,309.62,-12.01,-69.88
185776.0,0.2106,-0.9165,0.2886,1.8735,-1.0461,-10.3972,309.62,-12.02,-69.9
185790.0,0.2184,-0.9165,0.2847,2.2214,-0.9766,-10.4668,309.63,-12.02,-69.91
185804.0,0.2145,-0.9165,0.2847,2.4996,-0.7679,-10.2581,309.64,-12.03,-69.93
185818.0,0.2145,-0.9165,0.2886,3.4735,-1.3244,-9.9103,309.64,-12.03,-69.94
185832.0,0.2145,-0.9243,0.2886,3.6127,-2.3679,-9.9798,309.65,-12.04,-69.96
185846.0,0.2184,-0.9165,0.3003,3.7518,-3.4809,-9.9103,309.65,-12.04,-69.97
185860.0,0.2223,-0.9126,0.3003,3.1257,-3.1331,-9.4233,309.66,-12.05,-69.98
185874.0,0.2184,-0.9204,0.2925,2.7779,-2.507,-9.0059,309.66,-12.06,-69.99
185888.0,0.2106,-0.9126,0.2964,2.43,-2.3679,-9.5624,309.67,-12.06,-70.0
185902.0,0.2145,-0.9204,0.2886,2.3605,-2.4374,-10.119,309.67,-12.07,-70.02
185916.0,0.2184,-0.9204,0.2925,2.2909,-1.8809,-9.7711,309.68,-12.07,-70.03
185930.0,0.2145,-0.9204,0.2886,2.3605,-1.8113,-9.9103,309.69,-12.08,-70.04
185944.0,0.2145,-0.9204,0.2808,2.6387,-2.4374,-10.119,309.69,-12.08,-70.06
185958.0,0.2145,-0.9126,0.2886,3.404,-3.8287,-10.3277,309.7,-12.09,-70.07
185972.0,0.2067,-0.9204,0.2886,3.5431,-3.8287,-10.2581,309.7,-12.09,-70.09
185986.0,0.2145,-0.9165,0.3003,3.6127,-3.6896,-10.1885,309.71,-12.1,-70.1
186000.0,0.2184,-0.9165,0.3003,3.3344,-3.3418,-10.3277,309.71,-12.1,-70.11
186014.0,0.2223,-0.9165,0.2964,3.404,-2.8548,-10.3277,309.72,-12.11,-70.12
186028.0,0.2106,-0.9126,0.2925,3.4735,-1.8113,-10.2581,309.72,-12.11,-70.13
186042.0,0.2106,-0.9165,0.2925,3.3344,-1.5331,-10.2581,309.73,-12.12,-70.14
186056.0,0.2145,-0.9165,0.2925,3.3344,-1.5331,-10.1885,309.73,-12.12,-70.15
186070.0,0.2145,-0.9126,0.3003,2.6387,-1.3939,-10.119,309.74,-12.13,-70.16
186084.0,0.2184,-0.9087,0.3003,2.43,-1.0461,-10.0494,309.74,-12.13,-70.17
186098.0,0.2145,-0.9126,0.2964,2.4996,-0.907,-10.6755,309.75,-12.14,-70.18
186112.0,0.2106,-0.9204,0.2925,2.7779,-1.3939,-10.8146,309.75,-12.14,-70.19
186126.0,0.2106,-0.9243,0.2925,3.0561,-2.3679,-9.9798,309.76,-12.14,-70.2
186140.0,0.2184,-0.9243,0.2964,3.8909,-2.2287,-9.5624,309.76,-12.15,-70.21
186154.0,0.2223,-0.9204,0.2964,3.6822,-1.8809,-9.4233,309.77,-12.16,-70.22
186168.0,0.2262,-0.9204,0.2925,2.7083,-0.907,-9.5624,309.77,-12.16,-70.24
186182.0,0.2184,-0.9126,0.2925,2.43,-0.9766,-9.632,309.78,-12.17,-70.25
186196.0,0.2145,-0.9165,0.2925,2.4996,-1.7418,-9.8407,309.78,-12.17,-70.26
186210.0,0.1989,-0.9165,0.2847,3.1953,-2.2983,-9.9103,309.79,-12.17,-70.27
186224.0,0.1989,-0.9204,0.2847,3.6127,-2.9939,-10.2581,309.8,-12.17,-70.29
186238.0,0.2067,-0.9243,0.2886,4.0996,-2.507,-10.3972,309.8,-12.17,-70.3
186252.0,0.2145,-0.9243,0.2925,3.9605,-1.8113,-10.2581,309.81,-12.18,-70.31
186266.0,0.2145,-0.9204,0.2925,3.5431,-0.8374,-9.7711,309.81,-12.18,-70.32
186280.0,0.2145,-0.9165,0.2925,3.1953,-0.2809,-9.9798,309.82,-12.19,-70.33
186294.0,0.2067,-0.9165,0.2886,3.0561,-0.1418,-10.745,309.82,-12.19,-70.34
186308.0,0.2106,-0.9165,0.2964,2.6387,-1.2548,-11.7885,309.83,-12.19,-70.35
186322.0,0.2145,-0.9243,0.2925,2.4996,-1.1157,-11.7885,309.83,-12.19,-70.36
186336.0,0.2067,-0.9204,0.2964,2.4996,-1.1853,-10.745,309.83,-12.2,-70.37
186350.0,0.2067,-0.9204,0.2964,2.7083,-1.4635,-10.119,309.84,-12.2,-70.38
186364.0,0.2145,-0.9165,0.2925,2.7083,-1.7418,-9.632,309.84,-12.2,-70.39
186378.0,0.2184,-0.9204,0.2925,2.43,-1.7418,-9.145,309.85,-12.21,-70.41
186392.0,0.2106,-0.9204,0.2925,2.5692,-1.9505,-9.3537,309.85,-12.21,-70.42
186406.0,0.2028,-0.9204,0.2886,3.1257,-2.2287,-10.3277,309.86,-12.21,-70.43
186420.0,0.2028,-0.9204,0.2847,3.5431,-2.2983,-10.3972,309.87,-12.21,-70.44
186434.0,0.1989,-0.9282,0.2886,4.0996,-2.2287,-10.4668,309.87,-12.21,-70.45
186448.0,0.2028,-0.9243,0.2925,4.1692,-2.5766,-10.1885,309.88,-12.21,-70.46
186462.0,0.2184,-0.9126,0.2964,3.404,-1.6722,-9.4929,309.88,-12.21,-70.47
186476.0,0.2106,-0.9126,0.2886,1.9431,-0.0026,-9.0755,309.89,-12.22,-70.48
186490.0,0.195,-0.9165,0.2808,1.6648,-0.3505,-9.632,309.89,-12.21,-70.5
186504.0,0.1989,-0.9282,0.2769,1.804,-1.1157,-10.119,309.9,-12.21,-70.51
186518.0,0.195,-0.9243,0.2808,2.3605,-2.7157,-9.145,309.9,-12.21,-70.53
186532.0,0.195,-0.9282,0.2691,2.7083,-3.4809,-8.2407,309.91,-12.21,-70.55
186546.0,0.195,-0.9204,0.273,3.8909,-5.1505,-7.6146,309.92,-12.2,-70.56
186560.0,0.2145,-0.9126,0.2847,3.8214,-5.2896,-7.7537,309.92,-12.21,-70.57
186574.0,0.2145,-0.9165,0.2964,3.404,-4.5244,-8.032,309.93,-12.21,-70.58
186588.0,0.2145,-0.9165,0.3081,2.0127,-2.7853,-8.2407,309.93,-12.21,-70.59
186602.0,0.2184,-0.9126,0.3042,1.0387,-1.8809,-7.8929,309.94,-12.22,-70.59
186616.0,0.2184,-0.9165,0.3003,-0.0047,0.1365,-8.2407,309.94,-12.22,-70.6
186630.0,0.2106,-0.9165,0.2769,0.204,0.1365,-8.9363,309.94,-12.23,-70.61
186644.0,0.2106,-0.9165,0.2769,0.7605,-0.6287,-9.7016,309.95,-12.23,-70.63
186658.0,0.2184,-0.9165,0.2886,1.7344,-1.5331,-10.0494,309.95,-12.24,-70.64
186672.0,0.2184,-0.9204,0.2847,2.2214,-1.8113,-9.7711,309.96,-12.24,-70.65
186686.0,0.2262,-0.9165,0.2925,3.0561,-2.0896,-9.2842,309.96,-12.25,-70.66
186700.0,0.2184,-0.9126,0.2925,3.3344,-2.3679,-9.4233,309.97,-12.25,-70.67
186714.0,0.2184,-0.9126,0.3003,3.3344,-2.507,-10.119,309.97,-12.26,-70.67
186728.0,0.2145,-0.9204,0.3003,2.9866,-2.1592,-10.8842,309.98,-12.26,-70.68
186742.0,0.2106,-0.9165,0.3003,2.5692,-2.4374,-10.8842,309.98,-12.27,-70.69
186756.0,0.2106,-0.9165,0.3003,2.1518,-2.1592,-10.6059,309.99,-12.27,-70.69
186770.0,0.2106,-0.9243,0.2925,2.2214,-2.1592,-10.6059,309.99,-12.27,-70.7
186784.0,0.2067,-0.9243,0.2925,2.3605,-2.4374,-10.1885,310.0,-12.27,-70.71
186798.0,0.2067,-0.9243,0.2964,2.9866,-2.0896,-9.7711,310.0,-12.27,-70.72
186812.0,0.2028,-0.9282,0.2886,3.1257,-1.7418,-9.632,310.01,-12.27,-70.73
186826.0,0.1989,-0.9204,0.2925,3.2648,-2.2287,-9.3537,310.01,-12.27,-70.74
186840.0,0.2028,-0.9243,0.2964,3.1953,-1.8809,-9.3537,310.01,-12.27,-70.75
186854.0,0.2028,-0.9243,0.2964,2.7779,-1.1853,-8.9363,310.02,-12.27,-70.76
186868.0,0.2028,-0.9204,0.2964,1.7344,-0.2809,-9.0059,310.02,-12.26,-70.76
186882.0,0.2106,-0.9204,0.2925,1.4561,0.2756,-9.4233,310.03,-12.27,-70.77
186896.0,0.2106,-0.9204,0.2925,1.2474,1.4582,-9.9798,310.03,-12.27,-70.78
186910.0,0.195,-0.9243,0.2769,1.3866,1.18,-10.4668,310.04,-12.27,-70.8
186924.0,0.1911,-0.9282,0.2808,1.6648,-0.0722,-10.4668,310.04,-12.26,-70.81
186938.0,0.1872,-0.9243,0.2808,2.7779,-2.3679,-9.632,310.05,-12.26,-70.82
186952.0,0.1911,-0.9204,0.2769,3.3344,-3.0635,-8.7276,310.05,-12.25,-70.84
186966.0,0.1911,-0.9204,0.2847,3.6822,-3.9679,-7.4755,310.06,-12.25,-70.85
186980.0,0.1911,-0.9165,0.2886,3.6822,-3.9679,-7.545,310.06,-12.24,-70.86
186994.0,0.1989,-0.9243,0.2808,3.7518,-3.8287,-8.5885,310.07,-12.24,-70.87
187008.0,0.2028,-0.9243,0.2808,3.4735,-2.2983,-9.2146,310.07,-12.24,-70.88
187022.0,0.195,-0.9204,0.2691,3.0561,-1.8113,-9.7711,310.08,-12.24,-70.9
187036.0,0.195,-0.9282,0.273,2.6387,-2.3679,-10.3277,310.09,-12.23,-70.91
187050.0,0.1911,-0.9282,0.2691,2.4996,-2.7853,-9.9798,310.09,-12.23,-70.93
187064.0,0.1872,-0.9282,0.2691,2.6387,-3.2722,-8.519,310.1,-12.22,-70.94
187078.0,0.1911,-0.9204,0.2808,2.5692,-4.1766,-7.8929,310.1,-12.22,-70.96
187092.0,0.195,-0.9204,0.2847,2.5692,-4.4548,-7.6842,310.11,-12.22,-70.97
187106.0,0.2028,-0.9165,0.2925,2.3605,-3.6896,-8.3103,310.11,-12.22,-70.97
187120.0,0.2067,-0.9204,0.2847,1.9431,-3.1331,-8.7276,310.12,-12.22,-70.98
187134.0,0.1989,-0.9204,0.2886,1.5953,-2.7157,-8.7972,310.12,-12.22,-70.99
187148.0,0.2184,-0.9321,0.2964,0.8996,-2.507,-7.8233,310.13,-12.22,-71.0
187162.0,0.2223,-0.9126,0.3003,0.2735,-0.907,-6.0842,310.13,-12.23,-71.0
187176.0,0.1872,-0.9126,0.3003,-1.9526,2.78,-4.1363,310.14,-12.22,-71.01
187190.0,0.1872,-0.9126,0.3081,-3.1352,6.1887,-4.4842,310.14,-12.21,-71.01
187204.0,0.1755,-0.9165,0.3003,-4.4569,14.7452,-5.5276,310.14,-12.2,-71.02
187218.0,0.1716,-0.9165,0.2847,-7.1004,16.2061,-5.2494,310.14,-12.18,-71.03
187232.0,0.1911,-0.9048,0.2886,-7.796,15.4408,-5.1798,310.14,-12.18,-71.04
187246.0,0.1911,-0.9126,0.2808,-8.8395,11.5452,-3.9276,310.14,-12.17,-71.05
187260.0,0.2028,-0.9126,0.2886,-8.6308,10.5713,-3.0929,310.14,-12.17,-71.06
187274.0,0.1677,-0.9048,0.2925,-8.4221,10.2234,-2.119,310.14,-12.16,-71.07
187288.0,0.1599,-0.9204,0.2886,-6.2656,10.78,-1.632,310.15,-12.14,-71.08
187302.0,0.1521,-0.8892,0.2886,-3.7613,11.9626,-2.119,310.15,-12.12,-71.08
187316.0,0.1599,-0.8892,0.3003,-0.1439,9.1104,-5.8755,310.15,-12.1,-71.08
187330.0,0.2223,-0.8541,0.3627,1.6648,5.4234,-6.7103,310.14,-12.11,-71.05
187344.0,0.2535,-0.8268,0.3861,3.1953,2.5017,-11.0233,310.13,-12.14,-71.0
187358.0,0.2925,-0.7995,0.4407,5.9083,5.1452,-16.2407,310.12,-12.2,-70.92
187372.0,0.3471,-0.7371,0.4797,9.1083,10.293,-23.6842,310.09,-12.28,-70.81
187386.0,0.3861,-0.6981,0.5304,15.8561,21.3539,-40.1711,310.06,-12.37,-70.68
187400.0,0.4953,-0.6006,0.6591,19.9605,27.2669,-48.7972,310.03,-12.48,-70.54
187414.0,0.5694,-0.5811,0.702,24.8996,36.38,-71.0581,309.99,-12.59,-70.4
187428.0,0.7995,-0.4992,0.8346,34.2909,40.2756,-83.8581,309.95,-12.72,-70.28
187442.0,0.9009,-0.468,0.8541,39.5779,43.5452,-99.3711,309.91,-12.85,-70.16
187456.0,1.053,-0.4095,0.8892,56.9692,43.4061,-132.9016,309.86,-13.0,-70.04
187470.0,1.2597,-0.3744,0.8892,65.2474,41.4582,-143.4755,309.82,-13.16,-69.93
187484.0,1.2987,-0.39,0.9321,69.9083,34.4321,-157.945,309.78,-13.32,-69.82
187503.0,1.3767,-0.4173,1.0569,78.604,31.2321,-168.1016,309.73,-13.54,-69.66
187517.0,1.4508,-0.507,1.0374,80.8996,25.5278,-168.8668,309.69,-13.7,-69.55
187531.0,1.4664,-0.5421,1.0335,83.7518,25.5974,-170.119,309.65,-13.87,-69.44
187545.0,1.3689,-0.6162,1.131,86.6735,39.5104,-180.9016,309.6,-14.03,-69.31
187559.0,1.4547,-0.6708,1.2441,81.4561,52.4495,-194.5363,309.55,-14.2,-69.18
187573.0,1.5288,-0.8658,1.1154,70.7431,77.4234,-218.8146,309.49,-14.38,-69.07
187587.0,1.5015,-0.9204,0.9477,51.9605,127.1626,-229.3885,309.42,-14.56,-68.97
187601.0,1.5015,-0.9672,0.8619,46.7431,132.8669,-241.9798,309.36,-14.75,-68.88
187615.0,1.5015,-1.1076,0.7917,40.83,130.6408,-275.232,309.29,-14.95,-68.81
187629.0,1.5717,-1.092,0.819,43.1953,122.78,-289.7016,309.23,-15.15,-68.74
187643.0,1.599,-1.092,0.9243,45.4909,129.5974,-277.6668,309.16,-15.34,-68.65
187657.0,1.5795,-1.0374,0.9711,52.0301,152.2061,-268.0668,309.09,-15.54,-68.56
187671.0,1.7199,-0.897,1.1388,54.3953,155.2669,-263.4059,309.01,-15.72,-68.45
187685.0,1.6185,-0.9126,1.0686,57.9431,166.1191,-265.9102,308.92,-15.91,-68.34
187699.0,1.6029,-0.9438,0.9516,63.717,162.5017,-272.6581,308.84,-16.1,-68.24
187713.0,1.6146,-0.9477,0.9282,74.0822,155.6843,-283.0929,308.77,-16.3,-68.14
187727.0,1.7043,-0.9282,0.975,92.1692,155.893,-288.519,308.69,-16.49,-68.03
187741.0,1.7277,-0.9048,0.8697,97.0387,162.9887,-290.0494,308.61,-16.69,-67.93
187755.0,1.7238,-0.8697,0.8073,109.9083,169.3191,-277.3189,308.53,-16.89,-67.83
187769.0,1.56,-0.8073,0.7449,117.1431,167.8582,-271.4755,308.46,-17.08,-67.74
187783.0,1.4157,-0.7917,0.6825,123.3344,163.6843,-267.0233,308.38,-17.28,-67.64
187797.0,1.3104,-0.7059,0.6474,132.517,147.8234,-272.1711,308.31,-17.47,-67.53
187811.0,1.1349,-0.6708,0.6474,133.5605,136.7626,-279.545,308.23,-17.67,-67.42
187825.0,1.0569,-0.5889,0.6513,129.5257,119.1626,-297.0059,308.16,-17.86,-67.3
187839.0,1.0296,-0.4212,0.741,124.03,111.9278,-303.3363,308.08,-18.05,-67.15
187853.0,1.092,-0.3744,0.78,116.9344,106.0147,-303.7537,308.0,-18.24,-67.01
187867.0,1.1505,-0.3276,0.8034,97.5953,111.2321,-299.9276,307.92,-18.43,-66.88
187881.0,1.0686,-0.3939,0.7098,87.9257,121.4582,-292.4842,307.83,-18.62,-66.75
187895.0,0.8931,-0.3627,0.5499,80.9692,133.7017,-277.4581,307.75,-18.81,-66.63
187909.0,0.8307,-0.351,0.5148,82.4996,130.1539,-274.3972,307.67,-19.0,-66.51
187923.0,0.741,-0.3315,0.4641,84.3083,123.2669,-263.7538,307.6,-19.19,-66.39
187937.0,0.507,-0.2301,0.3315,92.0996,112.4147,-257.4233,307.52,-19.37,-66.26
187951.0,0.4797,-0.1794,0.4173,96.2735,97.6669,-251.9972,307.44,-19.54,-66.11
187965.0,0.3627,-0.1248,0.4524,101.1431,78.606,-245.5276,307.35,-19.67,-65.94
187979.0,0.273,-0.1326,0.5031,100.8648,70.5365,-244.4842,307.27,-19.76,-65.76
187993.0,0.1365,-0.1287,0.546,99.7518,59.5452,-262.2233,307.18,-19.82,-65.58
188007.0,0.1833,-0.1209,0.6786,96.1344,55.7887,-272.519,307.09,-19.88,-65.4
188021.0,0.2145,-0.1638,0.7761,89.804,59.2669,-284.4146,307.01,-19.95,-65.22
188035.0,0.0936,-0.2652,0.6942,74.43,72.0669,-308.4146,306.91,-19.98,-65.04
188049.0,-0.0117,-0.2613,0.5538,72.8996,69.8408,-315.8581,306.82,-19.99,-64.86
188063.0,0.078,-0.234,0.6123,73.6648,56.0669,-305.9102,306.73,-20.02,-64.69
188077.0,0.1053,-0.2769,0.5811,72.7605,56.1365,-289.8407,306.63,-20.06,-64.5
188091.0,-0.0156,-0.3315,0.429,71.5779,60.3104,-273.9102,306.55,-20.02,-64.34
188105.0,-0.1365,-0.3939,0.4407,77.7692,63.4408,-239.0581,306.48,-19.94,-64.2
188119.0,-0.2808,-0.5031,0.4836,81.4561,61.1452,-223.6842,306.42,-19.84,-64.1
188133.0,-0.4641,-0.5031,0.4875,81.5257,58.9887,-200.8668,306.38,-19.72,-64.02
188147.0,-0.5226,-0.4836,0.4563,71.8561,62.1887,-191.4755,306.33,-19.61,-63.94
188161.0,-0.5187,-0.4992,0.5577,63.1605,61.6321,-181.319,306.28,-19.5,-63.86
188175.0,-0.5343,-0.5772,0.5031,43.4735,75.5452,-160.7276,306.23,-19.38,-63.79
188189.0,-0.4641,-0.5772,0.3861,41.8735,76.5191,-149.945,306.2,-19.24,-63.75
188203.0,-0.3627,-0.6864,0.4251,38.0474,72.7626,-123.8581,306.16,-19.1,-63.71
188217.0,-0.3393,-0.7761,0.2847,33.8735,66.4321,-106.1885,306.15,-18.97,-63.71
188231.0,-0.4992,-0.8151,0.0273,37.2822,68.5887,-88.3798,306.15,-18.85,-63.76
188245.0,-0.5616,-0.9477,-0.2496,36.2387,68.9365,-49.4233,306.16,-18.75,-63.84
188259.0,-0.5109,-1.0491,-0.3471,37.2822,53.1452,-32.6581,306.18,-18.66,-63.93
188273.0,-0.4017,-1.0998,-0.3822,26.2909,38.7452,-6.7798,306.21,-18.58,-64.02
188287.0,-0.4407,-1.4859,-0.8892,13.4214,40.2061,9.8463,306.24,-18.51,-64.13
188301.0,-0.3354,-1.6224,-1.0647,4.5866,30.5365,29.1158,306.28,-18.46,-64.25
188315.0,-0.078,-1.9968,-1.482,-9.883,-0.4896,90.5419,306.33,-18.42,-64.37
188329.0,-0.0312,-1.9968,-1.7667,-5.7091,-21.8461,129.0115,306.4,-18.38,-64.51
188343.0,0.0156,-1.9968,-1.8954,42.0127,-104.8374,203.7245,306.48,-18.33,-64.63
188357.0,0.5499,-1.9968,-1.7784,59.1953,-142.2635,245.881,306.59,-18.3,-64.76
188371.0,0.8034,-1.9968,-1.7004,68.7953,-168.907,296.2463,306.7,-18.27,-64.88
188385.0,1.3572,-1.9968,-1.7394,74.2909,-205.22,412.1419,306.83,-18.24,-65.0
188399.0,1.8876,-1.9968,-1.9032,76.517,-224.6983,477.9506,306.97,-18.21,-65.12
188413.0,1.9929,-1.9968,-1.9968,85.7692,-288.1418,670.1593,307.14,-18.16,-65.25
188427.0,1.9929,-1.9968,-1.9968,119.23,-327.3766,827.6549,307.34,-18.06,-65.38
188441.0,1.9929,-1.9968,-1.9968,144.6214,-395.4809,1018.8897,307.58,-17.94,-65.51
188455.0,1.9929,-1.9968,-1.9968,156.0996,-535.4461,1603.4463,307.91,-17.7,-65.67
188469.0,1.9929,-1.9968,-1.9968,149.3518,-559.307,1842.9594,308.27,-17.4,-65.83
188483.0,1.9929,-1.9968,-1.9968,-121.2569,-210.7852,1740.6985,308.53,-17.1,-66.04
188497.0,1.9929,-1.9968,-1.9968,-210.6482,-227.1331,1598.4376,308.78,-16.82,-66.26
188511.0,1.9929,-1.9968,-1.9968,-245.9874,-226.3679,1394.9594,309.01,-16.59,-66.48
188525.0,1.9929,-1.9968,-1.9968,-39.9352,-171.3418,906.5419,309.17,-16.47,-66.63
188539.0,1.9929,-1.9968,0.0819,106.8474,-173.0809,555.0984,309.29,-16.46,-66.68
188553.0,1.9929,-1.9968,1.4586,108.6561,-179.8287,465.6376,309.36,-16.5,-66.62
188567.0,1.9929,-1.9968,1.9929,46.0474,-82.507,617.4984,309.41,-16.48,-66.52
188581.0,1.9929,-1.9968,1.9929,47.1605,-102.6113,755.3766,309.49,-16.44,-66.43
188595.0,1.9929,-1.9968,1.9929,70.9518,-124.0374,849.7767,309.57,-16.38,-66.34
188609.0,1.9929,-1.9968,1.3221,48.4822,-137.7418,923.3071,309.69,-16.31,-66.32
188623.0,1.9929,-1.9968,1.4625,377.6649,-627.6896,779.5158,309.9,-16.33,-66.23
188637.0,1.9929,-1.3845,0.9087,473.804,-670.82,677.0463,310.12,-16.39,-66.15
188651.0,1.9929,-1.3026,0.2067,512.6909,-569.7418,605.6723,310.32,-16.44,-66.11
188665.0,1.9929,-0.9711,-0.585,585.0388,-148.4548,555.0984,310.43,-16.44,-66.06
188679.0,1.9929,-1.4079,-1.2987,612.9344,74.6408,515.5854,310.49,-16.41,-66.02
188693.0,1.9929,-0.7839,-1.2285,632.4127,280.0669,377.0811,310.49,-16.4,-65.94
188707.0,1.9929,-0.7254,-1.3845,579.7518,375.4408,333.9506,310.46,-16.4,-65.87
188721.0,1.9929,-1.1271,-1.4469,524.6561,393.9452,282.6811,310.42,-16.38,-65.82
188735.0,1.9929,-1.0803,-0.3081,448.2735,198.7452,142.4376,310.41,-16.45,-65.76
188749.0,1.9929,-1.0569,-0.156,412.7953,172.9365,78.855,310.39,-16.55,-65.7
188763.0,1.9929,-0.624,-1.1154,349.9779,279.3713,40.5941,310.35,-16.62,-65.67
188777.0,1.9929,-0.2886,-1.404,340.1692,261.2148,40.0376,310.32,-16.71,-65.66
188791.0,1.8174,0.0936,-1.3494,337.2475,205.98,26.681,310.29,-16.81,-65.65
188805.0,1.6809,0.3237,-1.3689,288.204,148.2408,-24.9363,310.28,-16.93,-65.65
188819.0,1.365,0.3198,-1.6107,248.0648,163.893,-45.5277,310.27,-17.04,-65.68
188833.0,0.6552,0.2301,-1.9968,166.1866,170.293,-49.3537,310.26,-17.11,-65.76
188847.0,0.5148,0.2652,-1.9968,133.5605,155.1974,-43.0233,310.26,-17.16,-65.86
188861.0,0.1989,0.3627,-1.9968,100.517,149.1452,-30.7103,310.27,-17.2,-65.98
188875.0,-0.3354,0.3237,-1.9968,25.1083,153.3887,-24.032,310.28,-17.19,-66.12
188889.0,-0.6708,0.2925,-1.9032,-2.2308,109.5626,-20.4146,310.3,-17.15,-66.28
188903.0,-0.7176,0.3393,-1.5561,-38.5439,49.7365,-17.0059,310.33,-17.11,-66.44
188917.0,-0.9633,0.1872,-1.482,-47.5178,49.4582,-12.2059,310.36,-17.03,-66.6
188931.0,-0.5889,-0.1131,-1.0218,-39.6569,39.3017,36.4202,310.4,-16.95,-66.75
188945.0,-0.429,-0.0468,-0.7644,4.517,96.2756,82.6115,310.43,-16.85,-66.89
188959.0,-0.7254,0.351,-0.7722,16.5518,144.3452,116.4202,310.44,-16.71,-67.0
188973.0,-1.2987,0.6474,-1.0569,3.7518,130.6408,118.5767,310.44,-16.56,-67.08
188987.0,-0.6045,0.6084,-0.6201,-13.1526,48.0669,85.3245,310.46,-16.46,-67.16
189001.0,-0.3978,0.5538,-0.4524,-31.2395,-3.62,61.3245,310.49,-16.4,-67.23
189015.0,-0.3588,0.4524,-0.117,-67.2047,-12.4548,82.3332,310.49,-16.32,-67.23
189029.0,-0.3822,0.2535,-0.039,-68.1091,1.8756,111.3419,310.5,-16.2,-67.23
189043.0,-0.3978,0.4095,0.0468,-29.5004,67.6843,171.168,310.48,-16.09,-67.19
189057.0,-0.6084,0.6396,0.0741,-11.6221,108.8669,189.5332,310.46,-15.98,-67.14
189071.0,-0.5889,1.0296,0.117,14.8822,109.1452,152.5941,310.44,-15.9,-67.08
189085.0,-0.6318,1.1271,-0.1638,45.9083,115.5452,114.5419,310.41,-15.83,-67.03
189099.0,-0.3666,1.0257,-0.1638,62.1866,104.2756,68.0028,310.38,-15.79,-66.98
189113.0,-0.2262,1.1115,-0.0234,84.2387,93.6321,27.655,310.35,-15.79,-66.9
189127.0,-0.2457,1.0881,-0.2106,77.2127,94.8843,33.2897,310.32,-15.78,-66.84
189141.0,-0.1326,1.1232,-0.1404,76.517,83.2669,47.6897,310.3,-15.78,-66.78
189155.0,-0.2496,1.2324,-0.3237,51.8214,82.5713,54.9245,310.27,-15.77,-66.74
189169.0,-0.234,1.3533,-0.5187,36.1692,78.5365,50.055,310.26,-15.78,-66.71
189183.0,-0.3549,1.4898,-0.7293,7.5779,67.0582,9.2897,310.25,-15.78,-66.72
189197.0,-0.2535,1.4391,-0.7839,-5.3613,47.8582,-29.5972,310.24,-15.81,-66.74
189211.0,-0.3081,1.1778,-0.7215,-5.9178,21.5626,-54.2233,310.24,-15.83,-66.77
189225.0,-0.2379,1.0725,-0.6474,2.0127,13.5626,-45.1798,310.24,-15.86,-66.8
189239.0,-0.2067,1.014,-0.6279,5.8387,15.7887,-33.9103,310.24,-15.89,-66.83
189253.0,-0.1911,1.0452,-0.6396,17.6648,43.2669,-1.2842,310.24,-15.91,-66.86
189267.0,-0.3042,1.131,-0.7449,20.1692,49.7365,4.2115,310.24,-15.92,-66.89
189281.0,-0.3705,1.1934,-0.7527,18.43,18.0147,-15.8233,310.24,-15.92,-66.92
189295.0,-0.312,1.1427,-0.7371,1.5953,3.4756,-25.9798,310.25,-15.94,-66.96
189309.0,-0.3627,1.0764,-0.7098,-6.683,-3.8983,-30.8494,310.26,-15.95,-67.0
189323.0,-0.351,1.0257,-0.6708,-16.5613,-7.307,-36.2059,310.27,-15.96,-67.05
189337.0,-0.3042,0.9867,-0.6825,-20.1091,1.1104,-32.032,310.28,-15.97,-67.1
189351.0,-0.3042,0.9321,-0.6435,-21.6395,7.6495,-23.4755,310.29,-15.98,-67.15
189365.0,-0.2964,0.9243,-0.6162,-23.7265,12.1017,-18.1885,310.29,-15.98,-67.2
189379.0,-0.4095,0.9672,-0.6552,-24.0047,13.0061,-15.1276,310.3,-15.97,-67.25
189393.0,-0.4017,0.9477,-0.5928,-24.1439,-4.6635,-23.6842,310.31,-15.96,-67.29
189407.0,-0.4212,0.9048,-0.5343,-23.6569,-12.5939,-27.7885,310.32,-15.95,-67.33
189421.0,-0.3939,0.8892,-0.4992,-21.6395,-25.3939,-30.9885,310.33,-15.94,-67.36
189435.0,-0.3354,0.8385,-0.4017,-15.4482,-23.9331,-29.3885,310.33,-15.93,-67.37
189449.0,-0.2769,0.7995,-0.4134,-13.7786,-14.6113,-22.5016,310.34,-15.93,-67.39
189463.0,-0.312,0.819,-0.4563,-9.6743,3.0582,-4.7624,310.34,-15.92,-67.42
189477.0,-0.3705,0.8775,-0.4719,-8.283,2.6408,-2.5363,310.35,-15.91,-67.44
189491.0,-0.3744,0.8892,-0.4563,-7.9352,-8.6983,-5.8755,310.35,-15.89,-67.46
189510.0,-0.351,0.9165,-0.4329,-9.4656,-13.707,-9.8407,310.36,-15.88,-67.47
189524.0,-0.3393,0.9165,-0.4251,-9.883,-18.2983,-12.4146,310.37,-15.88,-67.49
189538.0,-0.3354,0.9087,-0.4251,-8.7004,-18.6461,-14.6407,310.37,-15.88,-67.5
189552.0,-0.3081,0.8658,-0.3783,-9.396,-14.6113,-13.8059,310.37,-15.87,-67.5
189566.0,-0.3276,0.8385,-0.4017,-11.0656,-11.8287,-10.5363,310.38,-15.86,-67.52
189580.0,-0.3198,0.8541,-0.3939,-10.7873,-11.0635,-4.4146,310.38,-15.86,-67.53
189594.0,-0.3549,0.8892,-0.4017,-8.77,-10.1592,-2.8146,310.39,-15.84,-67.54
189608.0,-0.3666,0.9126,-0.4095,-7.6569,-11.5505,-3.1624,310.39,-15.83,-67.55
189622.0,-0.3549,0.9594,-0.4095,-6.7526,-17.6722,-9.5624,310.39,-15.82,-67.55
189636.0,-0.3198,0.9633,-0.4095,-7.17,-18.7853,-12.6929,310.4,-15.83,-67.55
189650.0,-0.3393,0.9438,-0.3861,-8.3526,-16.7679,-13.2494,310.4,-15.82,-67.56
189664.0,-0.3588,0.9438,-0.3822,-10.7178,-11.1331,-13.3885,310.4,-15.81,-67.56
189678.0,-0.3744,0.9438,-0.3861,-11.0656,-9.1853,-14.3624,310.4,-15.8,-67.56
189692.0,-0.3666,0.9438,-0.4017,-11.2743,-5.3592,-16.6581,310.4,-15.8,-67.57
189706.0,-0.351,0.9321,-0.3978,-10.4395,-4.5244,-17.2146,310.4,-15.79,-67.57
189720.0,-0.3861,0.9438,-0.4056,-9.6743,-3.8287,-19.0929,310.4,-15.78,-67.57
189734.0,-0.3705,0.9204,-0.39,-9.6047,-6.82,-21.2494,310.4,-15.77,-67.58
189748.0,-0.3666,0.9009,-0.3627,-9.4656,-6.5418,-21.4581,310.4,-15.76,-67.58
189762.0,-0.3783,0.9048,-0.3627,-10.1613,-5.8461,-19.9277,310.4,-15.75,-67.58
189776.0,-0.3783,0.9165,-0.3588,-10.9265,-6.6809,-19.4407,310.4,-15.73,-67.58
189790.0,-0.4095,0.9165,-0.3705,-11.97,-7.3766,-20.4842,310.4,-15.72,-67.58
189804.0,-0.39,0.9087,-0.3588,-11.9004,-12.1766,-21.319,310.4,-15.7,-67.58
189818.0,-0.3744,0.897,-0.3354,-10.7873,-11.9679,-20.6233,310.4,-15.69,-67.58
189832.0,-0.4056,0.9087,-0.3432,-8.9786,-9.7418,-13.8755,310.4,-15.67,-67.58
189846.0,-0.4368,0.9204,-0.3315,-7.796,-11.3418,-11.5798,310.4,-15.65,-67.57
189860.0,-0.4485,0.9204,-0.3237,-6.8221,-12.7331,-9.4929,310.4,-15.63,-67.56
189874.0,-0.4407,0.9087,-0.3159,-3.8308,-12.4548,-9.9103,310.4,-15.6,-67.56
189888.0,-0.4407,0.9126,-0.3081,-2.2308,-11.2026,-10.6059,310.39,-15.58,-67.55
189902.0,-0.429,0.9087,-0.2964,-1.2569,-8.907,-12.5537,310.39,-15.56,-67.53
189916.0,-0.4095,0.8814,-0.312,-1.3265,-8.1418,-13.319,310.39,-15.54,-67.53
189930.0,-0.4095,0.8775,-0.312,-1.6047,-5.9853,-11.9972,310.39,-15.52,-67.52
189944.0,-0.4134,0.8775,-0.3315,-1.2569,-5.6374,-10.745,310.39,-15.49,-67.51
189958.0,-0.4017,0.8853,-0.3315,-0.5613,-5.8461,-9.2146,310.38,-15.47,-67.51
189972.0,-0.4056,0.9126,-0.3315,0.4822,-3.5505,-7.6146,310.38,-15.45,-67.5
189986.0,-0.4173,0.9204,-0.3354,0.6214,-2.2287,-7.7537,310.38,-15.43,-67.49
190000.0,-0.429,0.9321,-0.3159,0.4127,-2.7157,-9.3537,310.38,-15.41,-67.48
190014.0,-0.4173,0.936,-0.312,-1.5352,-2.3679,-10.119,310.37,-15.39,-67.47
190028.0,-0.4212,0.9282,-0.3198,-2.8569,-0.7679,-10.3277,310.37,-15.37,-67.46
190042.0,-0.429,0.9516,-0.3237,-3.483,3.2669,-10.8842,310.36,-15.34,-67.45
190056.0,-0.429,0.9516,-0.3315,-3.6917,4.8669,-12.4146,310.36,-15.32,-67.44
190070.0,-0.4173,0.936,-0.3549,-3.6917,4.5191,-14.2929,310.36,-15.3,-67.43
190084.0,-0.3939,0.9282,-0.3471,-2.9265,2.9191,-14.5016,310.35,-15.29,-67.43
190098.0,-0.3783,0.9204,-0.3627,-2.6482,1.9452,-14.0146,310.35,-15.27,-67.43
190112.0,-0.3822,0.9282,-0.3549,-2.3004,-1.4635,-13.1798,310.35,-15.26,-67.42
190126.0,-0.3939,0.9282,-0.3432,-2.7873,-3.4809,-13.5972,310.34,-15.24,-67.41
190140.0,-0.4173,0.9126,-0.3159,-3.8308,-4.7331,-14.2929,310.34,-15.22,-67.41
190154.0,-0.4173,0.9204,-0.3003,-4.0395,-3.7592,-14.0146,310.34,-15.2,-67.39
190168.0,-0.4407,0.936,-0.3042,-3.6917,-1.5331,-13.5972,310.33,-15.17,-67.38
190182.0,-0.4446,0.9282,-0.3042,-3.5526,1.5974,-14.1537,310.33,-15.15,-67.37
190196.0,-0.4329,0.9282,-0.312,-3.483,2.4321,-14.432,310.32,-15.13,-67.36
190210.0,-0.429,0.9243,-0.3159,-3.1352,3.4061,-13.6668,310.32,-15.1,-67.35
190224.0,-0.4251,0.9204,-0.3159,-2.7178,2.6408,-13.3885,310.31,-15.08,-67.34
190238.0,-0.429,0.9087,-0.2964,-2.0221,0.5539,-13.5276,310.31,-15.05,-67.32
190252.0,-0.4368,0.9087,-0.2886,-1.0482,-2.2287,-12.9016,310.3,-15.03,-67.31
190266.0,-0.4329,0.9048,-0.273,-0.6308,-2.4374,-12.2059,310.3,-15.0,-67.29
190280.0,-0.4407,0.9048,-0.2808,0.5518,-0.4896,-9.7016,310.29,-14.98,-67.28
190294.0,-0.4407,0.9165,-0.2964,1.6648,0.2756,-8.7972,310.29,-14.95,-67.26
190308.0,-0.4251,0.9165,-0.2925,3.1257,1.0408,-8.6581,310.28,-14.92,-67.25
190322.0,-0.4134,0.9204,-0.3081,4.8648,3.6147,-8.7972,310.28,-14.9,-67.23
190336.0,-0.4095,0.9282,-0.3198,5.1431,4.1713,-8.7972,310.27,-14.88,-67.22
190350.0,-0.4134,0.9321,-0.3393,3.404,1.0408,-8.7276,310.27,-14.86,-67.21
190364.0,-0.429,0.936,-0.3354,2.2909,-2.6461,-9.3537,310.27,-14.83,-67.2
190378.0,-0.429,0.9321,-0.3276,1.8735,-4.8722,-9.7016,310.26,-14.81,-67.19
190392.0,-0.4329,0.9321,-0.3198,2.6387,-4.8722,-8.7972,310.26,-14.78,-67.18
190406.0,-0.429,0.9282,-0.3198,3.4735,-4.3157,-7.8929,310.26,-14.76,-67.17
190420.0,-0.4095,0.9282,-0.312,4.3083,-3.62,-6.7798,310.26,-14.74,-67.15
190434.0,-0.4056,0.9243,-0.312,4.03,-3.1331,-6.7798,310.25,-14.72,-67.14
190448.0,-0.39,0.9204,-0.2964,3.7518,-2.7853,-6.919,310.25,-14.7,-67.13
190462.0,-0.4017,0.9243,-0.3081,1.5257,-0.9766,-6.5711,310.24,-14.67,-67.11
190476.0,-0.4095,0.9321,-0.3198,0.4127,-2.1592,-7.6146,310.24,-14.65,-67.1
190490.0,-0.3939,0.9282,-0.3315,-0.4917,-5.9853,-8.5885,310.24,-14.63,-67.09
190504.0,-0.39,0.9204,-0.3315,-0.0743,-6.0548,-7.7537,310.24,-14.61,-67.08
190518.0,-0.3978,0.9438,-0.3159,0.3431,-5.3592,-6.7103,310.23,-14.59,-67.07
190532.0,-0.3978,0.9438,-0.312,-0.2134,-5.0113,-7.6146,310.23,-14.57,-67.06
190546.0,-0.3978,0.9516,-0.3081,-1.0482,-5.0113,-9.0059,310.23,-14.55,-67.04
190560.0,-0.39,0.9399,-0.2964,-2.0221,-3.62,-10.3277,310.22,-14.53,-67.03
190574.0,-0.4017,0.9321,-0.3042,-2.3004,-2.5766,-11.1624,310.22,-14.51,-67.01
190588.0,-0.3978,0.9321,-0.3042,-1.883,-2.2287,-12.4146,310.21,-14.49,-67.0
190602.0,-0.3939,0.9399,-0.2886,-0.6308,-1.3244,-13.5276,310.21,-14.47,-66.98
190616.0,-0.4017,0.9516,-0.312,-0.4917,0.2061,-13.0407,310.2,-14.45,-66.97
190630.0,-0.3939,0.9555,-0.3198,0.1344,-0.7679,-13.1798,310.2,-14.44,-66.95
190644.0,-0.3978,0.9555,-0.3198,0.6909,-2.0896,-13.1798,310.19,-14.42,-66.94
190658.0,-0.4017,0.9555,-0.3198,1.0387,-2.9244,-12.345,310.19,-14.4,-66.93
190672.0,-0.4173,0.9633,-0.3159,1.2474,-4.5244,-11.5798,310.19,-14.38,-66.91
190686.0,-0.4173,0.9516,-0.2964,0.7605,-5.4983,-11.8581,310.18,-14.35,-66.9
190700.0,-0.429,0.9516,-0.2964,-0.9786,-6.2635,-12.4842,310.18,-14.33,-66.88
190714.0,-0.4212,0.9321,-0.2808,-1.5352,-7.3766,-13.2494,310.17,-14.31,-66.86
190728.0,-0.4173,0.9282,-0.273,-1.7439,-7.307,-13.6668,310.17,-14.28,-66.84
190742.0,-0.4134,0.897,-0.273,-1.0482,-6.1244,-14.0146,310.16,-14.26,-66.83
190756.0,-0.4173,0.8931,-0.273,0.0648,-5.3592,-13.0407,310.16,-14.23,-66.81
190770.0,-0.4251,0.8931,-0.2847,2.3605,-5.3592,-10.4668,310.15,-14.21,-66.79
190784.0,-0.4173,0.8853,-0.2886,3.6822,-5.9157,-10.1885,310.15,-14.18,-66.78
190798.0,-0.4095,0.8814,-0.2847,4.7953,-5.5679,-9.632,310.15,-14.15,-66.76
190812.0,-0.4134,0.8931,-0.2886,6.4648,-4.1766,-9.4929,310.14,-14.13,-66.74
190826.0,-0.4056,0.897,-0.2925,6.4648,-3.7592,-9.2842,310.14,-14.1,-66.73
190840.0,-0.4017,0.8892,-0.3042,5.2822,-3.3418,-8.8668,310.14,-14.07,-66.71
190854.0,-0.4017,0.8814,-0.3159,4.0996,-3.0635,-8.2407,310.13,-14.05,-66.7
190868.0,-0.4017,0.8736,-0.3471,3.1257,-3.5505,-7.6146,310.13,-14.02,-66.7
190882.0,-0.3705,0.8658,-0.3393,1.4561,-5.4983,-7.2668,310.13,-14.0,-66.69
190896.0,-0.3666,0.8541,-0.3471,0.6909,-6.6809,-7.3363,310.13,-13.98,-66.69
190910.0,-0.3783,0.8619,-0.3432,-0.8395,-9.3939,-8.1711,310.13,-13.95,-66.68
190924.0,-0.3783,0.8775,-0.3471,-1.3265,-10.0896,-8.7972,310.13,-13.93,-66.68
190938.0,-0.3939,0.9321,-0.3549,-1.7439,-10.3679,-11.6494,310.13,-13.91,-66.67
190952.0,-0.3861,0.9477,-0.3627,-3.6221,-13.0809,-13.0407,310.13,-13.89,-66.66
190966.0,-0.3939,0.9828,-0.3627,-4.7352,-14.6113,-13.8755,310.13,-13.87,-66.66
190980.0,-0.4056,0.9945,-0.3588,-7.5178,-17.3939,-12.1363,310.13,-13.85,-66.65
190994.0,-0.4251,1.0023,-0.3549,-9.4656,-18.7853,-10.8146,310.13,-13.83,-66.64
191008.0,-0.4836,1.014,-0.3003,-11.9004,-21.22,-11.7885,310.12,-13.81,-66.63
191022.0,-0.4953,0.9984,-0.2691,-19.97,-28.8026,-14.7798,310.12,-13.78,-66.61
191036.0,-0.4914,0.9477,-0.2067,-25.0482,-32.8374,-18.1885,310.12,-13.75,-66.59
191050.0,-0.4875,0.9204,-0.1911,-32.7004,-35.8287,-21.5972,310.12,-13.72,-66.57
191064.0,-0.4836,0.897,-0.1521,-33.4656,-34.9939,-21.1103,310.12,-13.69,-66.55
191078.0,-0.4875,0.8853,-0.1365,-32.0743,-33.3244,-19.6494,310.12,-13.66,-66.52
191092.0,-0.4797,0.8892,-0.1209,-22.8917,-26.9939,-18.0494,310.11,-13.63,-66.49
191106.0,-0.4641,0.897,-0.1326,-16.7004,-21.7766,-16.3798,310.11,-13.6,-66.46
191120.0,-0.468,0.9282,-0.1677,-4.5265,-12.8026,-14.432,310.1,-13.56,-66.43
191134.0,-0.4251,0.975,-0.1599,-0.0743,-11.6896,-14.5016,310.09,-13.54,-66.39
191148.0,-0.429,0.9906,-0.156,3.1953,-9.2548,-12.4146,310.08,-13.52,-66.35
191162.0,-0.4563,1.014,-0.1755,6.3953,-8.0722,-11.0929,310.08,-13.49,-66.32
191176.0,-0.4875,1.0179,-0.1872,6.8127,-7.5157,-10.1885,310.07,-13.46,-66.28
191190.0,-0.4953,1.0062,-0.1911,5.2822,-9.3939,-11.5798,310.06,-13.43,-66.25
191204.0,-0.4797,0.9945,-0.195,3.2648,-10.2983,-11.9972,310.05,-13.4,-66.22
191218.0,-0.4719,0.975,-0.2106,1.1779,-11.62,-9.3537,310.05,-13.37,-66.19
191232.0,-0.4641,0.975,-0.2262,0.2735,-12.0374,-6.5016,310.04,-13.34,-66.16
191246.0,-0.4602,0.9711,-0.2184,0.7605,-11.9679,-4.4146,310.04,-13.31,-66.13
191260.0,-0.4056,0.9594,-0.2028,3.6127,-10.8548,-2.3972,310.03,-13.29,-66.1
191274.0,-0.4017,0.9555,-0.1911,4.7953,-8.6983,-1.632,310.03,-13.26,-66.07
191288.0,-0.3861,0.9594,-0.195,5.4909,-4.8026,-2.3277,310.02,-13.24,-66.03
191302.0,-0.3744,0.9555,-0.195,5.4909,-3.9679,-3.9276,310.01,-13.22,-66.0
191316.0,-0.3549,0.9516,-0.1989,5.3518,-3.4113,-5.319,310.0,-13.2,-65.96
191330.0,-0.3627,0.9516,-0.2106,4.9344,-1.2548,-5.945,310.0,-13.18,-65.93
191344.0,-0.3627,0.9516,-0.2301,4.8648,-0.9766,-6.919,309.99,-13.16,-65.9
191358.0,-0.3666,0.9477,-0.2457,5.004,-0.3505,-8.9363,309.98,-13.14,-65.87
191372.0,-0.3744,0.9555,-0.2496,6.2561,0.1365,-9.2842,309.97,-13.12,-65.84
191386.0,-0.39,0.9633,-0.2418,6.9518,0.9017,-9.5624,309.96,-13.1,-65.82
191400.0,-0.39,0.9711,-0.2457,6.8822,2.2234,-10.4668,309.96,-13.08,-65.79
191414.0,-0.3978,0.9828,-0.2496,5.6996,1.8061,-10.8842,309.95,-13.05,-65.76
191428.0,-0.4017,0.9828,-0.2457,4.03,-0.0026,-12.2755,309.94,-13.03,-65.73
191442.0,-0.4017,0.975,-0.2574,0.4127,-0.6983,-12.2755,309.93,-13.01,-65.7
191456.0,-0.4173,0.9633,-0.2496,-0.4221,-0.8374,-11.9277,309.92,-12.98,-65.67
191470.0,-0.4173,0.9594,-0.2496,-1.0482,-0.4896,-11.0233,309.91,-12.96,-65.65
191484.0,-0.4134,0.9516,-0.2535,-0.9786,-0.2809,-11.0929,309.91,-12.93,-65.62
191498.0,-0.4017,0.9477,-0.2496,0.1344,-1.2548,-11.232,309.9,-12.9,-65.59
191517.0,-0.4017,0.9438,-0.2418,0.4127,-1.8809,-10.8146,309.89,-12.87,-65.55
191531.0,-0.4017,0.9477,-0.2184,0.7605,-3.4809,-10.6755,309.88,-12.84,-65.52
191545.0,-0.4017,0.9399,-0.2028,0.8996,-3.62,-10.6755,309.87,-12.82,-65.49
191559.0,-0.4056,0.9438,-0.2106,1.2474,-1.2548,-10.5363,309.86,-12.79,-65.46
191573.0,-0.4095,0.9555,-0.2106,1.0387,-1.0461,-11.0929,309.86,-12.77,-65.43
191587.0,-0.4173,0.9633,-0.2223,0.4822,-1.5331,-12.5537,309.85,-12.74,-65.39
191601.0,-0.429,0.9594,-0.2145,-0.3526,-3.4809,-12.7624,309.84,-12.71,-65.36
191615.0,-0.4212,0.9516,-0.2184,-0.4221,-4.3853,-12.832,309.83,-12.68,-65.33
191629.0,-0.429,0.9516,-0.2067,0.8996,-3.5505,-10.8146,309.82,-12.65,-65.3
191643.0,-0.4329,0.9555,-0.195,1.5257,-2.4374,-9.9103,309.81,-12.62,-65.26
191657.0,-0.4446,0.9594,-0.1872,1.7344,-1.1853,-10.3972,309.8,-12.59,-65.23
191671.0,-0.4563,0.9711,-0.1833,1.317,0.9017,-11.1624,309.79,-12.56,-65.19
191685.0,-0.4641,0.9672,-0.1872,0.9692,1.7365,-12.345,309.78,-12.53,-65.15
191699.0,-0.4602,0.9672,-0.1833,-0.0743,1.1104,-14.5016,309.77,-12.5,-65.12
191713.0,-0.4641,0.9633,-0.1872,-1.1178,0.9713,-14.919,309.76,-12.46,-65.08
191727.0,-0.4602,0.9516,-0.1911,-1.7439,0.693,-15.0581,309.75,-12.43,-65.05
191741.0,-0.4602,0.9438,-0.1833,-1.4656,-0.0722,-14.919,309.74,-12.39,-65.01
191755.0,-0.4563,0.9438,-0.1755,-0.5613,-0.3505,-14.1537,309.73,-12.36,-64.98
191769.0,-0.4485,0.9399,-0.1833,0.8996,-1.3244,-12.345,309.72,-12.33,-64.94
191783.0,-0.4524,0.9399,-0.1755,1.7344,-1.8113,-11.6494,309.71,-12.29,-64.9
191797.0,-0.4602,0.9282,-0.1638,2.3605,-2.0896,-11.4407,309.7,-12.26,-64.86
191811.0,-0.4563,0.9282,-0.1599,3.9605,-1.8113,-11.3016,309.69,-12.22,-64.82
191825.0,-0.4485,0.9204,-0.1716,4.517,-0.9766,-10.9537,309.68,-12.19,-64.79
191839.0,-0.4446,0.9282,-0.1833,4.517,-0.7679,-11.4407,309.67,-12.15,-64.75
191853.0,-0.4446,0.9126,-0.195,4.2387,-2.02,-12.4842,309.67,-12.12,-64.71
191867.0,-0.4563,0.9204,-0.1872,4.1692,-3.7592,-12.0668,309.66,-12.08,-64.68
191881.0,-0.4563,0.9243,-0.1911,5.004,-3.4113,-10.6059,309.65,-12.04,-64.64
191895.0,-0.4524,0.9438,-0.2067,5.8387,-3.1331,-9.5624,309.64,-12.01,-64.6
191909.0,-0.4563,0.9516,-0.2145,7.1605,-2.2983,-9.2842,309.63,-11.97,-64.57
191923.0,-0.4524,0.9516,-0.2028,7.0909,-1.8809,-10.0494,309.62,-11.94,-64.53
191937.0,-0.4563,0.9438,-0.2145,6.1866,-1.3244,-11.1624,309.61,-11.9,-64.5
191951.0,-0.4602,0.9438,-0.2262,3.9605,-1.9505,-11.3016,309.61,-11.87,-64.46
191965.0,-0.4524,0.936,-0.2262,2.8474,-3.4809,-12.1363,309.6,-11.83,-64.43
191979.0,-0.4446,0.9204,-0.2067,1.9431,-5.6374,-13.1798,309.59,-11.79,-64.39
191993.0,-0.4329,0.9165,-0.2028,2.2214,-5.1505,-12.4146,309.58,-11.76,-64.36
192007.0,-0.4368,0.9126,-0.2028,2.5692,-3.3418,-11.232,309.57,-11.72,-64.32
192021.0,-0.4329,0.9282,-0.195,2.9866,-2.7853,-11.3711,309.56,-11.69,-64.29
192035.0,-0.4329,0.9282,-0.2028,2.7083,-2.5766,-12.1363,309.55,-11.65,-64.25
192049.0,-0.4407,0.936,-0.1989,1.6648,-2.4374,-13.319,309.55,-11.62,-64.21
192063.0,-0.4446,0.9399,-0.2067,1.2474,-2.4374,-13.6668,309.54,-11.58,-64.18
192077.0,-0.4485,0.9477,-0.2028,0.83,-2.6461,-15.3363,309.53,-11.55,-64.14
192091.0,-0.4563,0.9438,-0.2028,0.3431,-2.5766,-16.032,309.52,-11.51,-64.1
192105.0,-0.4524,0.9477,-0.2028,0.3431,-1.6722,-16.3103,309.51,-11.48,-64.07
192119.0,-0.4524,0.9477,-0.2145,0.0648,-0.2809,-16.7972,309.5,-11.44,-64.03
192133.0,-0.4485,0.9399,-0.2262,-0.1439,-0.7679,-16.6581,309.49,-11.41,-64.0
192147.0,-0.4563,0.9438,-0.2184,-1.2569,-2.7853,-15.1972,309.48,-11.37,-63.96
192161.0,-0.4641,0.9477,-0.2184,-1.883,-4.3157,-15.2668,309.47,-11.33,-63.93
192175.0,-0.468,0.936,-0.195,-2.5091,-5.22,-15.545,309.46,-11.29,-63.89
192189.0,-0.4719,0.9399,-0.1833,-3.2743,-4.7331,-15.0581,309.45,-11.25,-63.86
192203.0,-0.468,0.9321,-0.1716,-3.3439,-3.8287,-14.6407,309.44,-11.21,-63.82
192217.0,-0.4836,0.9321,-0.1638,-3.2743,-2.02,-13.945,309.43,-11.17,-63.78
192231.0,-0.4875,0.9321,-0.1599,-3.0656,-1.4635,-14.2233,309.42,-11.13,-63.74
192245.0,-0.4758,0.9243,-0.1599,-2.996,-1.2548,-14.919,309.41,-11.09,-63.69
192259.0,-0.4719,0.9204,-0.1638,-2.2308,-0.42,-15.4755,309.4,-11.05,-63.65
192273.0,-0.4641,0.9282,-0.1677,-1.6047,-0.0026,-14.8494,309.39,-11.01,-63.61
192287.0,-0.468,0.9165,-0.1677,-0.7004,0.2061,-12.5537,309.38,-10.97,-63.57
192301.0,-0.468,0.9243,-0.1794,-0.283,-0.0722,-11.232,309.37,-10.92,-63.53
192315.0,-0.4758,0.9321,-0.1833,0.0648,-0.42,-10.2581,309.36,-10.88,-63.49
192329.0,-0.468,0.9399,-0.1755,0.7605,-1.8809,-9.9103,309.35,-10.84,-63.45
192343.0,-0.4836,0.9516,-0.1833,0.6909,-2.2287,-10.119,309.34,-10.8,-63.41
192357.0,-0.4797,0.9516,-0.1794,0.4127,-3.1331,-11.9972,309.33,-10.76,-63.37
192371.0,-0.468,0.9477,-0.1677,0.3431,-2.7853,-12.5537,309.32,-10.71,-63.33
192385.0,-0.4641,0.9399,-0.1677,0.204,-1.7418,-12.0668,309.31,-10.67,-63.29
192399.0,-0.4719,0.9516,-0.1833,0.3431,-0.907,-10.1885,309.3,-10.63,-63.24
192413.0,-0.468,0.9438,-0.1833,0.2735,-1.8113,-10.4668,309.29,-10.59,-63.2
192427.0,-0.4602,0.9399,-0.1872,0.8996,-2.5766,-10.3277,309.28,-10.55,-63.16
192441.0,-0.4524,0.9399,-0.1794,1.4561,-3.1331,-10.1885,309.27,-10.51,-63.12
192455.0,-0.4485,0.9399,-0.1794,1.804,-3.8983,-10.3277,309.27,-10.47,-63.08
192469.0,-0.4563,0.9282,-0.1755,1.2474,-5.4287,-10.8842,309.26,-10.43,-63.04
192483.0,-0.4563,0.9204,-0.1677,1.1779,-6.1244,-10.745,309.25,-10.39,-62.99
192497.0,-0.4602,0.9204,-0.1677,1.4561,-6.1244,-10.5363,309.24,-10.34,-62.95
192511.0,-0.4641,0.9282,-0.1716,1.6648,-5.5679,-10.0494,309.23,-10.3,-62.91
192525.0,-0.4641,0.9282,-0.1677,1.5953,-4.8026,-9.8407,309.22,-10.26,-62.86
192539.0,-0.4719,0.936,-0.1677,1.2474,-2.6461,-11.3711,309.21,-10.21,-62.82
192553.0,-0.468,0.9399,-0.1677,0.8996,-1.3939,-12.2059,309.2,-10.17,-62.78
192567.0,-0.4758,0.9477,-0.195,0.5518,-1.5331,-13.2494,309.19,-10.13,-62.74
192581.0,-0.468,0.9438,-0.1872,0.6214,-2.9244,-13.5972,309.18,-10.08,-62.69
192595.0,-0.4758,0.9438,-0.1716,0.7605,-3.5505,-13.6668,309.17,-10.04,-62.65
192609.0,-0.4875,0.9477,-0.1716,0.6909,-3.4809,-14.2233,309.16,-10.0,-62.61
192623.0,-0.4914,0.9438,-0.1716,0.6214,-4.107,-14.7103,309.15,-9.95,-62.56
192637.0,-0.4758,0.9399,-0.1794,0.8996,-3.2026,-14.432,309.14,-9.91,-62.52
192651.0,-0.4758,0.9399,-0.1872,1.1083,-2.9244,-14.1537,309.13,-9.86,-62.48
192665.0,-0.4719,0.936,-0.1755,1.1779,-3.2026,-14.2233,309.12,-9.82,-62.43
192679.0,-0.4797,0.9282,-0.1794,0.83,-4.2461,-15.0581,309.11,-9.77,-62.39
192693.0,-0.4719,0.9087,-0.1677,0.4822,-5.4287,-14.9885,309.1,-9.72,-62.34
192707.0,-0.4719,0.9087,-0.1833,0.6909,-6.8896,-13.2494,309.09,-9.68,-62.3
192721.0,-0.4719,0.9165,-0.1677,0.9692,-7.5853,-12.4842,309.09,-9.63,-62.26
192735.0,-0.4758,0.9165,-0.1755,1.2474,-7.6548,-12.0668,309.08,-9.58,-62.21
192749.0,-0.4797,0.9165,-0.1794,1.5953,-7.7244,-12.5537,309.07,-9.54,-62.17
192763.0,-0.468,0.9204,-0.1911,1.4561,-7.7244,-12.6929,309.06,-9.49,-62.13
192777.0,-0.4797,0.9282,-0.2028,0.1344,-9.0461,-12.0668,309.05,-9.44,-62.09
192791.0,-0.4836,0.9204,-0.2106,-0.4221,-10.6461,-12.2755,309.05,-9.39,-62.05
192805.0,-0.4719,0.9126,-0.2106,-0.8395,-11.9679,-13.0407,309.04,-9.35,-62.01
192819.0,-0.468,0.9165,-0.2106,-1.883,-11.8287,-12.6929,309.03,-9.3,-61.97
192833.0,-0.4719,0.9165,-0.2262,-2.6482,-11.5505,-12.2059,309.03,-9.25,-61.93
192847.0,-0.468,0.9243,-0.2379,-4.1091,-14.9592,-12.0668,309.02,-9.2,-61.89
192861.0,-0.4602,0.9321,-0.2496,-5.2221,-16.6287,-12.7624,309.01,-9.16,-61.86
192875.0,-0.4524,0.936,-0.2613,-6.8221,-18.4374,-13.5972,309.01,-9.11,-61.82
192889.0,-0.4524,0.9594,-0.2769,-11.3439,-21.9853,-14.1537,309.0,-9.07,-61.79
192903.0,-0.4524,0.9555,-0.2886,-14.0569,-23.4461,-15.1972,309.0,-9.03,-61.76
192917.0,-0.4446,0.9594,-0.3042,-19.8308,-27.7592,-17.2842,309.0,-8.98,-61.74
192931.0,-0.4407,0.9555,-0.2925,-22.8917,-30.4026,-18.4668,309.0,-8.94,-61.71
192945.0,-0.4446,0.936,-0.2652,-26.0917,-32.907,-20.345,308.99,-8.9,-61.68
192959.0,-0.4251,0.9321,-0.2652,-31.4482,-37.3592,-20.9016,308.99,-8.86,-61.65
192973.0,-0.4134,0.9282,-0.2652,-33.396,-38.7505,-20.832,308.99,-8.83,-61.62
192987.0,-0.3978,0.9165,-0.2652,-35.8308,-42.7853,-19.9972,308.99,-8.79,-61.6
193001.0,-0.39,0.9165,-0.2613,-37.2917,-46.82,-20.4146,308.99,-8.76,-61.57
193015.0,-0.3939,0.9048,-0.2262,-39.3786,-51.9679,-21.7363,308.99,-8.73,-61.54
193029.0,-0.4134,0.9009,-0.1911,-45.083,-60.5939,-22.2233,308.99,-8.69,-61.51
193043.0,-0.4329,0.897,-0.1209,-47.3091,-63.0287,-23.1277,308.99,-8.66,-61.47
193057.0,-0.4524,0.9009,-0.1092,-50.5786,-64.0722,-28.4146,308.99,-8.62,-61.43
193071.0,-0.4485,0.8736,-0.0702,-52.0395,-65.394,-33.7016,308.99,-8.58,-61.39
193085.0,-0.3237,0.8112,-0.0117,-53.1526,-63.1679,-35.9277,308.99,-8.56,-61.34
193099.0,-0.3159,0.7878,0.0039,-62.7526,-58.2983,-32.1711,308.99,-8.54,-61.29
193113.0,-0.3471,0.8073,0.0039,-68.5265,-56.0722,-28.2059,308.99,-8.51,-61.24
193127.0,-0.3666,0.8073,0.0117,-76.5265,-58.3679,-28.2059,308.98,-8.48,-61.2
193141.0,-0.4173,0.7839,0.0741,-78.8221,-60.107,-31.2668,308.98,-8.45,-61.15
193155.0,-0.4056,0.7644,0.1092,-80.77,-63.2374,-37.5276,308.98,-8.42,-61.1
193169.0,-0.3861,0.7761,0.1755,-84.5265,-61.8461,-38.5016,308.98,-8.39,-61.04
193183.0,-0.4173,0.7644,0.1872,-85.6395,-58.4374,-40.2407,308.97,-8.36,-60.99
193197.0,-0.4212,0.7605,0.234,-85.7091,-51.8287,-46.7103,308.96,-8.33,-60.93
193211.0,-0.468,0.7176,0.2652,-85.083,-46.6809,-48.4494,308.95,-8.29,-60.87
193225.0,-0.4524,0.6903,0.2691,-82.8569,-42.8548,-51.0929,308.94,-8.25,-60.81
193239.0,-0.3822,0.6708,0.2847,-76.4569,-41.0461,-48.7972,308.93,-8.22,-60.74
193253.0,-0.3978,0.6747,0.2964,-74.3004,-38.2635,-45.1103,308.92,-8.19,-60.67
193267.0,-0.4095,0.6591,0.3198,-75.1352,-45.0809,-43.0929,308.91,-8.15,-60.6
193281.0,-0.3978,0.6825,0.3744,-77.7786,-51.1331,-43.232,308.9,-8.12,-60.53
193295.0,-0.4329,0.6864,0.3978,-81.1178,-56.6287,-47.4059,308.9,-8.09,-60.46
193309.0,-0.4446,0.663,0.4641,-84.596,-56.42,-51.0233,308.89,-8.06,-60.39
193323.0,-0.4524,0.6318,0.4953,-85.083,-53.4287,-54.8494,308.88,-8.03,-60.32
193337.0,-0.5148,0.5811,0.4914,-84.3178,-48.2113,-60.345,308.87,-7.99,-60.25
193351.0,-0.4758,0.5538,0.4914,-81.6743,-49.6026,-61.2494,308.85,-7.95,-60.18
193365.0,-0.4446,0.5577,0.5343,-78.4047,-48.7679,-56.8668,308.84,-7.91,-60.1
193379.0,-0.4641,0.5694,0.5694,-78.4743,-48.5592,-56.519,308.83,-7.88,-60.02
193393.0,-0.4953,0.5655,0.5148,-80.77,-48.6983,-59.4407,308.82,-7.83,-59.95
193407.0,-0.4992,0.5538,0.5694,-84.1786,-55.0287,-67.232,308.81,-7.8,-59.87
193421.0,-0.5538,0.5109,0.6162,-84.5265,-53.9853,-69.7363,308.8,-7.75,-59.79
193435.0,-0.4953,0.4641,0.6591,-79.796,-53.3592,-71.8929,308.78,-7.72,-59.71
193449.0,-0.4641,0.4446,0.6357,-77.8482,-49.0461,-67.5798,308.77,-7.68,-59.63
193463.0,-0.4446,0.429,0.6435,-75.2047,-45.7766,-64.8668,308.76,-7.64,-59.55
193477.0,-0.4212,0.4251,0.6474,-70.4743,-43.2722,-61.8059,308.74,-7.6,-59.46
193491.0,-0.4095,0.429,0.6942,-68.9439,-40.6287,-60.5537,308.73,-7.57,-59.37
193505.0,-0.5187,0.4251,0.6981,-71.3091,-40.42,-61.7363,308.72,-7.52,-59.28
193524.0,-0.5655,0.3939,0.7098,-72.2134,-44.3853,-65.8407,308.7,-7.46,-59.17
193538.0,-0.546,0.3666,0.7176,-71.4482,-50.8548,-67.7885,308.68,-7.41,-59.09
193552.0,-0.5265,0.2691,0.7059,-70.3352,-50.7157,-68.4842,308.67,-7.35,-59.0
193566.0,-0.4719,0.2496,0.7215,-64.77,-59.4113,-67.1624,308.66,-7.31,-58.91
193580.0,-0.4056,0.2886,0.8151,-61.2917,-59.62,-61.5277,308.65,-7.27,-58.82
193594.0,-0.4095,0.2808,0.8307,-59.2743,-54.3331,-54.9885,308.64,-7.23,-58.72
193608.0,-0.4563,0.2808,0.819,-57.883,-37.9853,-54.5016,308.62,-7.19,-58.62
193622.0,-0.5109,0.273,0.7878,-56.4917,-32.7679,-55.8929,308.61,-7.14,-58.53
193636.0,-0.5226,0.2613,0.7527,-55.17,-37.6374,-61.8755,308.59,-7.08,-58.44
193650.0,-0.4641,0.273,0.7488,-56.5613,-46.5418,-62.2233,308.58,-7.03,-58.34
193664.0,-0.4329,0.2574,0.7761,-58.2308,-56.3505,-59.6494,308.57,-6.99,-58.25
193678.0,-0.4017,0.2496,0.8229,-58.8569,-66.7853,-58.0494,308.56,-6.95,-58.15
193692.0,-0.4095,0.2379,0.8307,-57.883,-66.9939,-56.4494,308.55,-6.91,-58.05
193706.0,-0.3783,0.1794,0.8814,-54.0569,-62.6809,-54.0842,308.54,-6.88,-57.94
193720.0,-0.3978,0.156,0.8775,-51.8308,-57.6722,-55.545,308.53,-6.83,-57.84
193734.0,-0.4095,0.1365,0.8658,-49.8134,-51.8983,-65.9103,308.51,-6.79,-57.74
193748.0,-0.3939,0.0741,0.8307,-48.77,-50.2287,-71.7537,308.5,-6.74,-57.63
193762.0,-0.39,0.0468,0.8073,-49.883,-47.5853,-78.2929,308.48,-6.7,-57.53
193776.0,-0.3705,-0.0117,0.7683,-54.6134,-42.7853,-88.519,308.46,-6.64,-57.42
193790.0,-0.3198,-0.039,0.7761,-57.6743,-38.6113,-92.2059,308.44,-6.6,-57.32
193804.0,-0.2262,-0.0702,0.8268,-60.9439,-22.82,-98.1885,308.42,-6.57,-57.2
193818.0,-0.2418,-0.0741,0.8424,-67.97,-6.6809,-100.9711,308.39,-6.53,-57.09
193832.0,-0.2418,-0.1287,0.7722,-70.683,7.58,-108.9016,308.35,-6.49,-56.97
193846.0,-0.3081,-0.1014,0.7488,-68.1786,28.5887,-121.5624,308.32,-6.43,-56.87
193860.0,-0.2925,-0.1014,0.702,-62.8221,32.9017,-123.6494,308.28,-6.37,-56.76
193874.0,-0.3627,-0.195,0.585,-56.0047,24.9017,-133.6668,308.24,-6.28,-56.66
193888.0,-0.2808,-0.2106,0.6357,-36.2482,13.7017,-136.3798,308.2,-6.21,-56.55
193902.0,-0.2418,-0.0897,0.7371,-31.4482,7.9278,-135.1972,308.16,-6.18,-56.43
193916.0,-0.195,-0.1248,0.7839,-28.9439,8.9713,-138.6059,308.13,-6.15,-56.3
193930.0,-0.195,-0.1677,0.8385,-30.6134,15.58,-139.1624,308.09,-6.11,-56.17
193944.0,-0.2028,-0.1911,0.8463,-34.3004,32.9713,-141.1103,308.04,-6.08,-56.04
193958.0,-0.2496,-0.2145,0.819,-41.3265,37.9104,-142.8494,308.0,-6.03,-55.92
193972.0,-0.3549,-0.2574,0.7449,-42.8569,35.2669,-145.0755,307.96,-5.95,-55.81
193986.0,-0.3744,-0.2808,0.702,-42.7873,2.78,-152.1016,307.92,-5.87,-55.71
194000.0,-0.2886,-0.3159,0.7176,-41.8134,-26.2287,-156.345,307.89,-5.8,-55.6
194014.0,-0.1833,-0.3549,0.7839,-42.6482,-75.4809,-158.432,307.87,-5.77,-55.47
194028.0,-0.0546,-0.4368,0.9906,-48.6308,-81.8113,-158.5016,307.84,-5.77,-55.33
194042.0,-0.0468,-0.4602,1.0959,-52.8047,-71.8635,-159.0581,307.81,-5.78,-55.19
194056.0,-0.0663,-0.4992,1.1154,-62.1265,-9.8113,-152.9363,307.78,-5.77,-55.05
194070.0,-0.2886,-0.5304,1.0101,-62.8917,23.9974,-149.1798,307.73,-5.7,-54.93
194084.0,-0.4056,-0.702,0.858,-58.2308,47.8582,-132.1364,307.69,-5.59,-54.86
194098.0,-0.5733,-0.6591,0.6981,-66.7178,26.4321,-112.6581,307.66,-5.45,-54.83
194112.0,-0.6396,-0.6825,0.7215,-72.0743,-5.4983,-99.6494,307.64,-5.32,-54.81
194126.0,-0.7059,-0.7449,0.8853,-70.0569,-49.9505,-76.6929,307.63,-5.2,-54.77
194140.0,-0.5538,-0.7332,0.9633,-73.9526,-61.6374,-53.0407,307.63,-5.08,-54.71
194154.0,-0.5148,-0.7371,1.0101,-80.0047,-46.9592,-29.319,307.62,-4.96,-54.65
194168.0,-0.4212,-0.7449,1.0101,-76.6656,-27.7592,-26.745,307.61,-4.84,-54.57
194182.0,-0.3627,-0.7878,0.9828,-69.9178,-8.42,-26.6059,307.6,-4.72,-54.49
194196.0,-0.3276,-0.741,0.9906,-52.596,25.8756,-29.6668,307.57,-4.61,-54.4
194210.0,-0.351,-0.7254,0.9399,-45.7091,35.1974,-31.4755,307.55,-4.48,-54.32
194224.0,-0.4095,-0.6708,0.8658,-34.5786,27.1278,-41.7711,307.53,-4.36,-54.24
194238.0,-0.39,-0.6591,0.8619,-30.196,13.6321,-48.7276,307.51,-4.23,-54.16
194252.0,-0.2652,-0.6552,0.9243,-25.9526,0.5539,-54.6407,307.49,-4.14,-54.05
194266.0,-0.2106,-0.6474,0.975,-16.6308,-6.7505,-61.5277,307.47,-4.06,-53.93
194280.0,-0.1638,-0.6396,1.0335,-12.3178,2.2234,-62.7798,307.44,-4.0,-53.79
194294.0,-0.1248,-0.6201,1.0218,-3.7613,37.0061,-62.2929,307.41,-3.94,-53.64
194308.0,-0.117,-0.6045,1.0023,0.8996,56.2061,-58.4668,307.38,-3.88,-53.49
194322.0,-0.156,-0.5655,0.9048,4.7953,73.8756,-51.7885,307.34,-3.8,-53.35
194336.0,-0.2106,-0.546,0.858,10.43,93.4234,-34.119,307.3,-3.7,-53.22
194350.0,-0.2574,-0.5928,0.7761,9.5953,90.9191,-25.0755,307.27,-3.58,-53.12
194364.0,-0.273,-0.6045,0.7449,0.5518,71.1626,-8.4494,307.25,-3.45,-53.03
194378.0,-0.2691,-0.6318,0.7449,-6.1265,58.2234,-3.4407,307.22,-3.32,-52.95
194392.0,-0.2847,-0.6864,0.7488,-14.196,48.1365,-1.0059,307.21,-3.19,-52.89
194406.0,-0.2574,-0.7683,0.78,-30.5439,34.5713,-6.432,307.19,-3.08,-52.84
194420.0,-0.1443,-1.014,0.8775,-38.683,30.7452,-2.6755,307.18,-3.01,-52.83
194434.0,-0.1521,-1.0959,0.8736,-44.3873,34.9887,24.5941,307.17,-2.93,-52.83
194448.0,-0.2418,-1.1115,0.7995,-39.5873,38.6756,39.6897,307.16,-2.84,-52.85
194462.0,-0.3393,-1.0725,0.7644,-31.4482,40.5539,50.4028,307.16,-2.73,-52.86
194476.0,-0.4056,-1.0296,0.6357,-13.4308,44.1713,55.6202,307.16,-2.61,-52.89
194490.0,-0.4953,-1.0062,0.5421,-5.8482,43.4061,53.6723,307.15,-2.49,-52.93
194504.0,-0.5031,-0.9789,0.468,2.0127,22.4669,53.3941,307.16,-2.37,-52.97
194518.0,-0.4953,-0.9165,0.3705,-0.9786,-1.2548,57.0115,307.17,-2.25,-53.02
194532.0,-0.5031,-0.8658,0.3315,-7.7265,-33.0461,62.0202,307.18,-2.14,-53.07
194546.0,-0.4329,-0.7839,0.2691,-22.5439,-109.3592,72.2463,307.21,-2.04,-53.14
194560.0,-0.4056,-0.7527,0.2496,-26.0221,-147.4809,76.5593,307.25,-1.95,-53.2
194574.0,-0.2808,-0.6474,0.3276,-20.8047,-215.5853,72.7332,307.3,-1.87,-53.25
194588.0,-0.1989,-0.6045,0.4017,-17.396,-236.1766,65.2897,307.35,-1.8,-53.27
194602.0,-0.0936,-0.5694,0.5382,-14.9613,-244.6635,54.7158,307.4,-1.75,-53.23
194616.0,0.0741,-0.5382,0.6435,-10.9265,-222.82,33.3593,307.44,-1.81,-53.11
194630.0,0.1326,-0.5304,0.7254,-10.5091,-194.1592,25.7071,307.47,-1.89,-52.98
194644.0,0.1521,-0.5343,0.8307,-13.8482,-118.0548,16.3854,307.48,-1.95,-52.84
194658.0,0.1131,-0.5421,0.8385,-17.0482,-79.5853,13.881,307.49,-2.0,-52.7
194672.0,0.0078,-0.5655,0.8112,-19.2047,-45.6374,11.2376,307.49,-1.99,-52.56
194686.0,-0.0702,-0.5616,0.7995,-19.2047,6.3278,9.3593,307.48,-1.94,-52.42
194700.0,-0.1599,-0.5616,0.7761,-18.5091,23.6495,4.9767,307.46,-1.85,-52.31
194714.0,-0.3003,-0.5772,0.7605,-14.6134,46.2582,-12.0668,307.44,-1.73,-52.22
194728.0,-0.3198,-0.6006,0.7566,-11.0656,53.1452,-21.1798,307.42,-1.6,-52.14
194742.0,-0.2886,-0.6357,0.7098,-7.3786,56.9713,-25.9798,307.4,-1.48,-52.08
194756.0,-0.3237,-0.6786,0.702,-2.2308,55.9278,-23.8929,307.38,-1.36,-52.03
194770.0,-0.2769,-0.6786,0.6786,-0.5613,45.5626,-20.7624,307.36,-1.24,-51.99
194784.0,-0.2496,-0.6786,0.6669,-0.9091,30.9539,-9.9798,307.34,-1.13,-51.95
194798.0,-0.2184,-0.6591,0.6591,-1.5352,26.0843,-5.5276,307.33,-1.03,-51.9
194812.0,-0.1989,-0.6435,0.6786,-1.6743,23.7191,-4.6233,307.32,-0.93,-51.84
194826.0,-0.195,-0.6201,0.7059,-1.396,29.7017,-7.545,307.3,-0.84,-51.77
194840.0,-0.2184,-0.6396,0.7098,-2.5091,36.5191,-11.1624,307.29,-0.74,-51.7
194854.0,-0.234,-0.6474,0.7098,-4.5265,48.0669,-17.7016,307.27,-0.63,-51.63
194868.0,-0.2769,-0.6981,0.6669,-4.1091,49.806,-17.0059,307.25,-0.52,-51.6
194882.0,-0.2925,-0.7098,0.6435,-2.8569,47.9278,-8.3103,307.23,-0.41,-51.58
194896.0,-0.3081,-0.702,0.6123,0.2735,33.0408,-2.6059,307.22,-0.29,-51.57
194910.0,-0.3042,-0.6942,0.6084,1.9431,23.3017,2.8202,307.21,-0.18,-51.55
194924.0,-0.2886,-0.6747,0.6201,4.6561,5.2147,9.2897,307.21,-0.07,-51.52
194938.0,-0.2769,-0.6591,0.6123,4.7953,-2.1592,10.055,307.2,0.04,-51.5
194952.0,-0.2691,-0.6552,0.6201,4.3083,-8.42,8.5941,307.2,0.14,-51.47
194966.0,-0.2496,-0.6825,0.6045,2.3605,-17.5331,8.3158,307.2,0.23,-51.45
194980.0,-0.2457,-0.6903,0.5889,2.3605,-21.7766,9.3593,307.2,0.32,-51.44
194994.0,-0.2223,-0.6864,0.5733,3.4735,-34.507,13.1158,307.2,0.41,-51.43
195008.0,-0.2106,-0.6825,0.5655,3.3344,-41.2548,14.7158,307.21,0.48,-51.42
195022.0,-0.1911,-0.6552,0.5694,2.9866,-52.5939,14.0897,307.21,0.56,-51.4
195036.0,-0.1794,-0.6474,0.5733,0.5518,-55.8635,11.9332,307.22,0.63,-51.38
195050.0,-0.1755,-0.6318,0.585,-1.1178,-57.7418,8.6637,307.23,0.7,-51.35
195064.0,-0.156,-0.6357,0.6045,-5.0134,-57.0461,2.2637,307.23,0.76,-51.32
195078.0,-0.1677,-0.6435,0.6123,-6.5439,-55.2374,0.5245,307.24,0.82,-51.29
195092.0,-0.1755,-0.6396,0.6201,-7.3786,-53.4983,-1.7711,307.24,0.89,-51.25
195106.0,-0.1638,-0.6435,0.624,-8.6308,-52.3157,-3.0233,307.24,0.95,-51.21
195120.0,-0.1755,-0.6474,0.6513,-9.0482,-49.8113,-3.9276,307.24,1.01,-51.17
195134.0,-0.1677,-0.6435,0.6747,-8.283,-41.6722,-7.4755,307.25,1.08,-51.11
195148.0,-0.1833,-0.6474,0.6942,-7.9352,-34.7157,-9.0755,307.24,1.15,-51.05
195162.0,-0.1989,-0.6708,0.6864,-7.5873,-20.7331,-10.8842,307.24,1.22,-51.01
195176.0,-0.234,-0.6591,0.6786,-7.17,-16.1418,-10.745,307.24,1.3,-50.96
195190.0,-0.2457,-0.6357,0.6864,-6.5439,-14.3331,-11.4407,307.23,1.39,-50.91
195204.0,-0.2847,-0.663,0.6747,-6.6134,-9.2548,-11.3016,307.23,1.49,-50.87
195218.0,-0.2691,-0.6591,0.6825,-6.196,-11.2722,-12.7624,307.22,1.58,-50.83
195232.0,-0.2652,-0.6474,0.6942,-6.196,-13.1505,-13.8755,307.22,1.68,-50.77
195246.0,-0.2652,-0.6435,0.702,-5.5004,-11.4113,-13.7363,307.21,1.77,-50.72
195260.0,-0.2574,-0.6474,0.702,-5.2221,-8.9766,-13.1798,307.21,1.86,-50.67
195274.0,-0.2496,-0.6474,0.702,-4.8047,-3.5505,-11.719,307.2,1.95,-50.61
195288.0,-0.2496,-0.6396,0.6903,-4.596,-0.6983,-10.6755,307.19,2.04,-50.56
195302.0,-0.2535,-0.6474,0.6864,-4.6656,2.3626,-9.3537,307.19,2.13,-50.51
195316.0,-0.2457,-0.6279,0.6825,-4.9439,2.5017,-8.8668,307.18,2.21,-50.46
195330.0,-0.2379,-0.6357,0.6942,-4.5265,1.9452,-8.519,307.17,2.3,-50.4
195344.0,-0.2418,-0.6162,0.6942,-4.4569,1.0408,-7.6842,307.17,2.39,-50.34
195358.0,-0.2418,-0.6201,0.702,-4.3178,1.0408,-8.2407,307.16,2.47,-50.28
195372.0,-0.2262,-0.6318,0.7098,-3.6917,2.5713,-10.1885,307.15,2.55,-50.22
195386.0,-0.2145,-0.6552,0.6981,-3.483,4.1017,-10.1885,307.15,2.63,-50.17
195400.0,-0.2184,-0.6669,0.6981,-3.3439,6.1191,-8.7972,307.14,2.7,-50.12
195414.0,-0.195,-0.6708,0.6825,-2.3004,6.6756,-5.945,307.13,2.77,-50.08
195428.0,-0.2145,-0.6591,0.6825,-1.8134,6.6061,-5.1103,307.12,2.84,-50.04
195442.0,-0.1911,-0.6591,0.6825,-1.2569,5.1452,-5.945,307.12,2.9,-50.0
195456.0,-0.1989,-0.6591,0.6903,-1.3265,4.7278,-6.9885,307.11,2.97,-49.95
195470.0,-0.1833,-0.6669,0.6903,-1.3265,4.4495,-8.5885,307.1,3.03,-49.91
195484.0,-0.1911,-0.6903,0.6981,-0.2134,4.2408,-11.0233,307.1,3.09,-49.87
195498.0,-0.1833,-0.7059,0.702,0.8996,4.6582,-11.9277,307.09,3.14,-49.83
195512.0,-0.1872,-0.7137,0.6903,4.7953,6.8843,-13.319,307.08,3.19,-49.81
195531.0,-0.2106,-0.702,0.6708,6.7431,8.4147,-15.1972,307.07,3.28,-49.77
195545.0,-0.2184,-0.6942,0.6669,9.3866,9.9452,-16.6581,307.06,3.34,-49.75
195559.0,-0.2301,-0.6942,0.6474,9.804,9.9452,-17.9798,307.05,3.41,-49.73
195573.0,-0.2379,-0.6864,0.6318,10.5692,8.4147,-18.119,307.04,3.48,-49.71
195587.0,-0.2418,-0.6825,0.6162,10.8474,7.093,-17.4929,307.03,3.55,-49.69
195601.0,-0.2418,-0.6864,0.6162,10.7779,5.2147,-14.432,307.02,3.62,-49.68
195615.0,-0.2418,-0.6825,0.6084,9.5257,0.9017,-12.832,307.01,3.69,-49.67
195629.0,-0.2262,-0.6786,0.6201,8.83,-1.4635,-12.0668,307.0,3.75,-49.66
195643.0,-0.2223,-0.6825,0.6279,8.3431,-3.2722,-12.0668,307.0,3.82,-49.64
195657.0,-0.2223,-0.6825,0.6279,8.4127,-2.9244,-12.9016,306.99,3.88,-49.62
195671.0,-0.2223,-0.6786,0.624,8.6214,-0.7679,-14.8494,306.98,3.94,-49.61
195685.0,-0.2301,-0.6903,0.6162,8.83,0.0669,-15.1972,306.97,4.0,-49.6
195699.0,-0.2262,-0.6864,0.6084,8.4127,0.7626,-15.4755,306.96,4.06,-49.59
195713.0,-0.234,-0.6786,0.6006,7.8561,2.0843,-15.8233,306.96,4.13,-49.58
195727.0,-0.2457,-0.6864,0.5928,7.4387,2.293,-15.4059,306.95,4.19,-49.58
195741.0,-0.2418,-0.6942,0.5889,7.1605,0.6234,-14.0146,306.94,4.26,-49.58
195755.0,-0.2496,-0.6708,0.5889,6.117,-0.1418,-13.4581,306.93,4.33,-49.57
195769.0,-0.2457,-0.6747,0.585,5.2127,-0.9766,-12.9711,306.92,4.39,-49.57
195783.0,-0.2457,-0.6669,0.6045,2.7779,-2.7157,-12.345,306.92,4.46,-49.55
195797.0,-0.2496,-0.6669,0.6006,1.6648,-3.3418,-12.4146,306.91,4.53,-49.54
195811.0,-0.2418,-0.6669,0.6318,0.6214,-3.8287,-13.5276,306.9,4.59,-49.53
195825.0,-0.2301,-0.6786,0.6396,-1.5352,-2.5766,-13.7363,306.9,4.65,-49.51
195839.0,-0.2301,-0.6786,0.6357,-2.3004,-1.6026,-13.5972,306.89,4.71,-49.49
195853.0,-0.2457,-0.6825,0.6396,-1.4656,-1.4635,-12.832,306.88,4.78,-49.47
195867.0,-0.2535,-0.6786,0.6474,-0.8395,-2.1592,-12.2059,306.88,4.84,-49.45
195881.0,-0.2574,-0.6747,0.6513,-0.3526,-3.6896,-11.6494,306.87,4.91,-49.43
195895.0,-0.2496,-0.6825,0.6591,-0.0743,-3.8983,-11.5798,306.87,4.98,-49.41
195909.0,-0.2496,-0.6903,0.663,-0.1439,-3.8983,-11.719,306.86,5.04,-49.39
195923.0,-0.2457,-0.6903,0.6552,1.1083,-2.7853,-11.0929,306.86,5.1,-49.37
195937.0,-0.2418,-0.6864,0.6474,2.0127,-2.7157,-10.5363,306.85,5.16,-49.35
195951.0,-0.234,-0.6591,0.6435,2.2909,-4.1766,-9.4929,306.84,5.22,-49.33
195965.0,-0.2301,-0.6513,0.6435,1.1083,-4.9418,-9.145,306.84,5.28,-49.3
195979.0,-0.2106,-0.6591,0.6591,0.1344,-5.22,-8.9363,306.84,5.33,-49.27
195993.0,-0.2223,-0.663,0.663,-1.1178,-5.0113,-8.7276,306.83,5.39,-49.24
196007.0,-0.2262,-0.6786,0.6747,-1.1873,-4.5244,-8.7972,306.83,5.44,-49.21
196021.0,-0.2106,-0.6903,0.6903,-0.7004,-3.4113,-9.145,306.82,5.49,-49.18
196035.0,-0.2106,-0.6981,0.6864,-0.0047,-3.2722,-9.2146,306.82,5.53,-49.16
196049.0,-0.2106,-0.7059,0.6981,1.1083,-3.1331,-9.2842,306.81,5.58,-49.13
196063.0,-0.1989,-0.702,0.6981,4.0996,-2.1592,-9.8407,306.81,5.62,-49.1
196077.0,-0.1911,-0.6864,0.6981,5.4909,-1.1157,-11.1624,306.8,5.66,-49.06
196091.0,-0.1833,-0.6942,0.6981,8.4822,2.0147,-13.6668,306.79,5.69,-49.03
196105.0,-0.1911,-0.6864,0.6708,9.4561,3.1974,-13.945,306.79,5.73,-49.01
196119.0,-0.1911,-0.6825,0.6669,10.43,3.8234,-14.1537,306.78,5.77,-48.98
196133.0,-0.195,-0.6864,0.6513,11.6127,4.1017,-14.1537,306.77,5.81,-48.96
196147.0,-0.1989,-0.6786,0.6396,11.7518,4.2408,-14.2929,306.76,5.85,-48.94
196161.0,-0.1911,-0.6747,0.6357,11.3344,3.7539,-14.0842,306.76,5.89,-48.92
196175.0,-0.2028,-0.663,0.6162,10.7083,3.4061,-14.0146,306.75,5.93,-48.91
196189.0,-0.1989,-0.6591,0.6084,10.2214,2.7104,-13.945,306.74,5.97,-48.9
196203.0,-0.1911,-0.6552,0.6084,8.3431,1.5278,-14.3624,306.73,6.01,-48.88
196217.0,-0.195,-0.6591,0.6006,6.8127,1.6669,-14.2929,306.72,6.05,-48.87
196231.0,-0.195,-0.6552,0.5928,4.1692,1.5278,-13.8059,306.72,6.09,-48.87
196245.0,-0.1989,-0.6513,0.5928,2.8474,1.2495,-13.8755,306.71,6.14,-48.86
196259.0,-0.195,-0.6474,0.5928,1.4561,0.9713,-13.945,306.7,6.18,-48.85
196273.0,-0.1872,-0.6474,0.6045,-1.396,0.7626,-15.4059,306.69,6.21,-48.84
196287.0,-0.1833,-0.6474,0.6123,-2.4395,0.9017,-16.1016,306.69,6.25,-48.82
196301.0,-0.1755,-0.6591,0.6201,-4.4569,2.0843,-16.9363,306.68,6.28,-48.81
196315.0,-0.1794,-0.6591,0.624,-5.2221,2.78,-17.4233,306.67,6.31,-48.8
196329.0,-0.1872,-0.6747,0.6435,-5.8482,3.4756,-17.9798,306.66,6.34,-48.78
196343.0,-0.1911,-0.6747,0.6552,-7.2395,4.1017,-19.7885,306.65,6.38,-48.76
196357.0,-0.2574,-0.7332,0.6474,-7.1004,4.0321,-20.5537,306.64,6.43,-48.77
196371.0,-0.156,-0.6903,0.6825,-4.2482,3.1278,-23.2668,306.64,6.44,-48.74
196385.0,-0.1989,-0.7137,0.6786,-3.1352,5.7017,-22.5711,306.63,6.48,-48.73
196399.0,-0.2184,-0.702,0.6864,-1.6743,7.8582,-22.5016,306.62,6.52,-48.71
196413.0,-0.2574,-0.6942,0.6747,-0.0047,12.38,-22.6407,306.61,6.57,-48.69
196427.0,-0.2574,-0.7137,0.663,0.1344,12.6582,-22.7798,306.6,6.62,-48.68
196441.0,-0.3354,-0.7215,0.6396,-0.2134,8.6234,-20.1363,306.59,6.69,-48.68
196455.0,-0.234,-0.702,0.7137,-0.9091,7.2321,-17.9103,306.58,6.74,-48.65
196469.0,-0.2418,-0.6942,0.7176,-0.77,7.6495,-16.8668,306.57,6.79,-48.62
196483.0,-0.2574,-0.7137,0.7137,2.7779,11.893,-17.2146,306.57,6.84,-48.59
196497.0,-0.2613,-0.7137,0.702,5.3518,12.0321,-17.2842,306.56,6.89,-48.57
196511.0,-0.2652,-0.7137,0.7215,8.9692,10.7104,-17.2842,306.55,6.95,-48.54
196525.0,-0.2535,-0.7176,0.7332,9.804,12.0321,-17.0059,306.54,6.99,-48.51
196539.0,-0.2457,-0.7215,0.7332,10.9866,15.4408,-16.7276,306.53,7.04,-48.48
196553.0,-0.2691,-0.7137,0.702,15.4387,24.4147,-16.4494,306.52,7.1,-48.46
196567.0,-0.2808,-0.702,0.6825,18.1518,27.5452,-17.145,306.51,7.16,-48.44
196581.0,-0.2769,-0.7137,0.663,21.9083,31.4408,-17.7711,306.5,7.22,-48.43
196595.0,-0.2574,-0.6903,0.6435,22.1866,33.4582,-17.3537,306.49,7.27,-48.41
196609.0,-0.2457,-0.6747,0.6396,20.9344,36.1713,-18.0494,306.47,7.32,-48.4
196623.0,-0.2301,-0.6591,0.6279,18.1518,41.806,-18.8842,306.46,7.37,-48.38
196637.0,-0.2262,-0.6513,0.6435,18.1518,45.98,-21.7363,306.44,7.42,-48.36
196651.0,-0.234,-0.6708,0.6591,19.404,61.2147,-30.7798,306.42,7.47,-48.34
196665.0,-0.2496,-0.6825,0.6474,19.9605,71.5104,-34.2581,306.4,7.53,-48.32
196679.0,-0.2808,-0.6981,0.6084,20.2387,80.6234,-33.5624,306.37,7.59,-48.32
196693.0,-0.3471,-0.6981,0.5967,19.3344,90.5713,-30.5711,306.35,7.67,-48.33
196707.0,-0.3588,-0.6903,0.5811,18.0127,92.3104,-27.3711,306.32,7.76,-48.34
196721.0,-0.39,-0.663,0.5616,15.717,91.7539,-24.3798,306.29,7.86,-48.34
196735.0,-0.3978,-0.6552,0.5499,15.0909,89.0408,-24.7972,306.27,7.96,-48.35
196749.0,-0.39,-0.6474,0.5304,14.6735,84.5191,-27.232,306.24,8.05,-48.36
196763.0,-0.3627,-0.6513,0.5226,13.0735,74.3626,-28.5537,306.22,8.14,-48.37
196777.0,-0.3432,-0.8619,0.4836,14.7431,73.3191,-26.6059,306.19,8.2,-48.43
196791.0,-0.3471,-0.5343,0.5655,10.0127,61.2843,-33.0059,306.17,8.3,-48.4
196805.0,-0.3237,-0.5733,0.5928,3.3344,61.7713,-35.8581,306.15,8.38,-48.37
196819.0,-0.2964,-0.6747,0.5928,1.0387,66.3626,-36.0668,306.13,8.45,-48.38
196833.0,-0.3003,-0.6981,0.585,3.1953,80.1365,-33.8407,306.11,8.51,-48.39
196847.0,-0.3744,-0.6942,0.5382,4.7953,85.5626,-31.1277,306.08,8.6,-48.41
196861.0,-0.4251,-0.6825,0.5031,3.8909,79.0234,-30.0842,306.05,8.69,-48.44
196875.0,-0.4602,-0.6591,0.4914,2.7083,67.9626,-32.2407,306.03,8.79,-48.46
196889.0,-0.4524,-0.6435,0.5031,2.4996,55.4408,-38.0842,306.01,8.89,-48.48
196903.0,-0.4446,-0.6552,0.4992,2.0822,34.5017,-41.5624,305.99,8.97,-48.5
196917.0,-0.4251,-0.6279,0.4992,1.5257,26.0147,-44.4842,305.97,9.06,-48.51
196931.0,-0.4134,-0.6708,0.5187,-0.5613,11.1974,-48.1016,305.95,9.14,-48.53
196945.0,-0.3549,-0.6708,0.5499,-0.5613,7.9278,-48.7276,305.94,9.2,-48.54
196959.0,-0.3276,-0.6825,0.5772,0.6214,15.9278,-46.9885,305.92,9.26,-48.55
196973.0,-0.2925,-0.6981,0.5694,4.517,25.5974,-43.8581,305.9,9.31,-48.57
196987.0,-0.312,-0.6942,0.5538,7.0214,37.0756,-39.9624,305.88,9.36,-48.58
197001.0,-0.3471,-0.6357,0.4797,12.0996,56.3452,-34.5363,305.86,9.44,-48.6
197015.0,-0.5304,-0.6162,0.3861,12.6561,57.2495,-35.9972,305.84,9.54,-48.63
197029.0,-0.5382,-0.5694,0.4017,11.7518,37.2147,-43.5798,305.82,9.65,-48.65
197043.0,-0.5265,-0.6279,0.3705,7.3692,24.4843,-44.9711,305.8,9.75,-48.69
197057.0,-0.5148,-0.6513,0.3744,6.7431,13.0061,-44.832,305.78,9.84,-48.73
197071.0,-0.4875,-0.663,0.3939,7.1605,0.4843,-38.9885,305.76,9.92,-48.76
197085.0,-0.4875,-0.6513,0.4173,6.8127,0.5539,-34.6755,305.75,10.01,-48.79
197099.0,-0.4992,-0.6435,0.4524,5.2127,5.2147,-27.8581,305.74,10.1,-48.82
197113.0,-0.5109,-0.6552,0.4797,-1.4656,7.3017,-25.0059,305.72,10.19,-48.84
197127.0,-0.5148,-0.6786,0.5187,-6.4047,9.4582,-22.432,305.71,10.29,-48.86
197141.0,-0.5421,-0.7449,0.6123,-15.1004,15.093,-21.319,305.7,10.38,-48.87
197155.0,-0.5499,-0.8073,0.6435,-17.8134,16.4147,-18.8842,305.69,10.47,-48.89
197169.0,-0.5811,-0.8892,0.6708,-19.0656,11.3365,-4.6233,305.68,10.55,-48.91
197183.0,-0.6201,-0.9009,0.6864,-17.9526,1.1104,3.7245,305.68,10.64,-48.93
197197.0,-0.6201,-0.9204,0.6942,-17.3265,-16.1418,11.8637,305.67,10.72,-48.95
197211.0,-0.5811,-0.9048,0.7293,-11.0656,-59.3418,23.3419,305.68,10.8,-48.96
197225.0,-0.5265,-0.8892,0.7878,-4.2482,-75.8287,24.2463,305.7,10.87,-48.96
197239.0,-0.39,-0.8658,0.8073,3.8909,-88.907,22.7158,305.72,10.91,-48.94
197253.0,-0.312,-0.8463,0.8307,20.517,-85.4983,22.0202,305.74,10.92,-48.91
197267.0,-0.2379,-0.7956,0.819,27.8214,-76.4548,22.855,305.76,10.92,-48.86
197281.0,-0.2301,-0.7605,0.7917,38.3953,-52.8026,28.281,305.77,10.93,-48.81
197295.0,-0.2262,-0.702,0.7488,40.6214,-42.1592,30.7854,305.79,10.94,-48.76
197309.0,-0.234,-0.6903,0.7371,41.5953,-23.5157,28.9767,305.8,10.95,-48.7
197323.0,-0.2496,-0.6747,0.6786,41.5257,-16.1418,24.5941,305.81,10.98,-48.66
197337.0,-0.2574,-0.6864,0.6513,41.9431,-10.9939,18.681,305.81,11.01,-48.64
197351.0,-0.2574,-0.6903,0.6357,45.8387,-1.6026,9.568,305.81,11.04,-48.62
197365.0,-0.2457,-0.6708,0.6279,49.804,6.7452,5.9506,305.8,11.07,-48.59
197379.0,-0.2535,-0.663,0.5967,56.6214,28.7974,1.2897,305.8,11.11,-48.58
197393.0,-0.2847,-0.6123,0.4992,59.0561,37.9104,0.1767,305.78,11.16,-48.58
197407.0,-0.3081,-0.5694,0.4251,60.4474,44.1713,-0.2407,305.77,11.23,-48.59
197421.0,-0.3432,-0.4836,0.3315,57.8735,38.5365,-1.0755,305.75,11.33,-48.6
197435.0,-0.3315,-0.4563,0.3198,52.517,26.4321,-2.4668,305.74,11.42,-48.62
197449.0,-0.3003,-0.4485,0.3939,36.3083,0.0669,-8.3103,305.73,11.5,-48.61
197463.0,-0.2301,-0.4641,0.4446,29.3518,-6.1244,-11.719,305.73,11.55,-48.59
197477.0,-0.2262,-0.468,0.5148,23.5779,-4.8026,-15.0581,305.73,11.59,-48.54
197491.0,-0.2691,-0.4914,0.6006,14.2561,10.2234,-26.5363,305.73,11.65,-48.47
197505.0,-0.2886,-0.5382,0.6162,12.2387,17.6669,-35.5103,305.73,11.7,-48.42
197519.0,-0.3237,-0.6513,0.6747,14.0474,31.9974,-50.6755,305.71,11.75,-48.39
197538.0,-0.3822,-0.7215,0.6669,16.4127,39.5104,-54.9885,305.69,11.82,-48.38
197552.0,-0.4329,-0.7449,0.6318,21.2822,47.2321,-52.6929,305.67,11.89,-48.38
197566.0,-0.4719,-0.741,0.624,22.604,44.8669,-48.3103,305.64,11.96,-48.39
197580.0,-0.5382,-0.7215,0.624,20.8648,32.2756,-36.9016,305.63,12.05,-48.39
197594.0,-0.5616,-0.7098,0.6162,19.404,23.4408,-31.6842,305.61,12.14,-48.39
197608.0,-0.6006,-0.6864,0.6084,18.7083,2.78,-22.7798,305.61,12.24,-48.39
197622.0,-0.6201,-0.6669,0.5889,19.1953,-9.3939,-19.3016,305.6,12.34,-48.38
197636.0,-0.6513,-0.6474,0.546,19.1257,-22.8896,-16.032,305.6,12.44,-48.38
197650.0,-0.6279,-0.6435,0.546,17.8735,-55.5157,-9.145,305.6,12.54,-48.38
197664.0,-0.5928,-0.6435,0.5577,16.3431,-71.6548,-4.2059,305.61,12.63,-48.38
197678.0,-0.4992,-0.6318,0.5694,14.8127,-96.7679,8.3854,305.63,12.7,-48.37
197692.0,-0.468,-0.6162,0.5733,11.1257,-105.394,13.5332,305.65,12.78,-48.36
197706.0,-0.429,-0.5694,0.6279,8.7605,-111.4461,17.0115,305.67,12.85,-48.31
197720.0,-0.4251,-0.546,0.6318,2.2214,-116.4548,15.2028,305.7,12.92,-48.27
197734.0,-0.4719,-0.5382,0.6045,-1.883,-121.1853,10.4028,305.73,13.0,-48.23
197748.0,-0.4875,-0.5538,0.5655,-7.4482,-144.0026,2.3332,305.76,13.08,-48.21
197762.0,-0.4485,-0.6435,0.5265,-16.9786,-165.4287,1.081,305.78,13.13,-48.21
197776.0,-0.3471,-0.6981,0.5382,-17.6047,-192.0026,-0.032,305.81,13.15,-48.23
197790.0,-0.2418,-0.7254,0.5577,-4.8047,-234.1592,4.1419,305.84,13.12,-48.25
197804.0,-0.039,-0.6747,0.6825,6.4648,-240.907,8.8723,305.89,13.0,-48.21
197818.0,0.0624,-0.6357,0.7371,17.4561,-222.4026,10.9593,305.94,12.85,-48.15
197832.0,0.2691,-0.5616,0.8619,31.9953,-194.9939,11.4463,305.99,12.69,-48.05
197846.0,0.3042,-0.5226,0.8697,33.317,-158.4026,13.1854,306.03,12.53,-47.96
197860.0,0.2886,-0.4485,0.8151,26.917,-81.6722,19.655,306.07,12.38,-47.86
197874.0,0.234,-0.4134,0.7644,20.3083,-49.2548,22.9245,306.09,12.25,-47.75
197888.0,0.1833,-0.3783,0.7293,12.9344,-7.1679,22.4376,306.12,12.13,-47.65
197902.0,0.117,-0.3588,0.7332,-1.1873,5.4234,19.5158,306.14,12.02,-47.53
197916.0,0.0975,-0.3627,0.7449,-7.1004,15.58,15.6897,306.16,11.92,-47.4
197930.0,0.0624,-0.39,0.7605,-14.196,34.9191,4.768,306.17,11.83,-47.28
197944.0,0.0429,-0.4095,0.7761,-16.3526,44.7974,-2.2581,306.19,11.75,-47.16
197958.0,0.0039,-0.4485,0.8112,-19.8308,63.6495,-14.0146,306.19,11.68,-47.04
197972.0,-0.0273,-0.4797,0.8268,-21.7091,71.093,-18.119,306.2,11.61,-46.92
197986.0,-0.0468,-0.5772,0.8346,-23.2395,76.8669,-21.1798,306.19,11.55,-46.82
198000.0,-0.0897,-0.6162,0.8307,-20.1786,87.58,-21.5276,306.18,11.51,-46.75
198014.0,-0.1131,-0.6279,0.8112,-14.683,93.0061,-19.9277,306.17,11.47,-46.68
198028.0,-0.1521,-0.6201,0.7566,-3.1352,101.7017,-15.8929,306.15,11.47,-46.62
198042.0,-0.1638,-0.5967,0.7371,-0.0047,101.98,-14.5711,306.14,11.47,-46.56
198056.0,-0.1989,-0.5499,0.7215,0.1344,99.3365,-14.3624,306.13,11.49,-46.49
198070.0,-0.1989,-0.5265,0.7254,-6.4743,85.493,-16.9363,306.12,11.51,-46.41
198084.0,-0.1833,-0.546,0.7605,-11.0656,76.6582,-17.7016,306.11,11.52,-46.32
198098.0,-0.1911,-0.5694,0.78,-18.0221,60.38,-16.6581,306.11,11.52,-46.24
198112.0,-0.1872,-0.5772,0.8112,-17.7439,55.0234,-15.545,306.11,11.52,-46.16
198126.0,-0.1911,-0.6084,0.8073,-14.6134,53.0756,-12.4842,306.11,11.52,-46.08
198140.0,-0.1989,-0.6045,0.8346,-6.1265,53.493,-5.1798,306.11,11.53,-46.0
198154.0,-0.2379,-0.5967,0.8541,-3.4134,55.3713,-3.0233,306.11,11.55,-45.91
198168.0,-0.2496,-0.6123,0.858,-1.5352,62.6756,-1.0755,306.11,11.57,-45.83
198182.0,-0.3159,-0.6513,0.7995,0.4127,66.0147,0.3854,306.1,11.63,-45.78
198196.0,-0.3471,-0.663,0.7488,4.517,68.2408,3.5854,306.09,11.69,-45.75
198210.0,-0.3744,-0.6513,0.663,18.9866,68.6582,14.0897,306.08,11.77,-45.74
198224.0,-0.429,-0.6162,0.624,25.2474,63.2321,17.9158,306.07,11.86,-45.73
198238.0,-0.429,-0.6006,0.5928,29.2127,43.3365,20.3506,306.06,11.96,-45.73
198252.0,-0.4212,-0.5967,0.5538,27.6822,30.7452,20.1419,306.05,12.05,-45.73
198266.0,-0.4134,-0.5889,0.546,24.6909,17.7365,19.7245,306.05,12.13,-45.73
198280.0,-0.3822,-0.5811,0.546,15.7866,-5.9157,16.8028,306.05,12.21,-45.73
198294.0,-0.3666,-0.5928,0.5499,11.404,-14.8896,14.7158,306.04,12.28,-45.73
198308.0,-0.351,-0.6045,0.5616,6.5344,-27.2722,7.6897,306.05,12.33,-45.74
198322.0,-0.2964,-0.6045,0.5889,5.3518,-28.6635,4.2115,306.05,12.37,-45.74
198336.0,-0.2886,-0.6006,0.6084,4.3083,-26.6461,0.3158,306.05,12.41,-45.73
198350.0,-0.2613,-0.6006,0.6279,2.7083,-13.8461,-10.4668,306.05,12.44,-45.71
198364.0,-0.2691,-0.6084,0.6318,3.2648,-2.9244,-16.2407,306.04,12.46,-45.7
198378.0,-0.3237,-0.585,0.6084,7.8561,21.8408,-28.6233,306.03,12.52,-45.69
198392.0,-0.351,-0.5733,0.5811,10.7083,33.0408,-35.3016,306.01,12.58,-45.68
198406.0,-0.4212,-0.5538,0.5499,13.004,42.7104,-40.9363,306.0,12.67,-45.68
198420.0,-0.4524,-0.5382,0.5538,15.5779,54.8843,-50.0494,305.97,12.76,-45.68
198434.0,-0.4875,-0.5343,0.5382,14.7431,56.6234,-52.9016,305.95,12.86,-45.67
198448.0,-0.5343,-0.507,0.5382,10.9866,51.5452,-55.2668,305.93,12.97,-45.67
198462.0,-0.5538,-0.5031,0.5538,8.1344,47.2321,-55.4755,305.91,13.08,-45.65
198476.0,-0.5382,-0.5226,0.5928,4.7953,42.4321,-54.7798,305.9,13.18,-45.64
198490.0,-0.5343,-0.5343,0.6006,-2.0917,36.7974,-48.4494,305.88,13.28,-45.63
198504.0,-0.5382,-0.5499,0.6201,-5.1526,34.9887,-43.719,305.87,13.39,-45.61
198518.0,-0.5577,-0.5499,0.6123,-9.4656,29.9104,-31.6842,305.86,13.49,-45.6
198532.0,-0.5577,-0.5577,0.6201,-10.7178,23.9974,-26.3972,305.85,13.59,-45.59
198546.0,-0.5733,-0.5694,0.6357,-11.5526,17.3887,-18.0494,305.84,13.7,-45.58
198560.0,-0.5616,-0.5733,0.6552,-11.97,4.1713,-15.7537,305.84,13.79,-45.56
198574.0,-0.5304,-0.585,0.6591,-11.7613,-0.907,-13.8059,305.84,13.89,-45.55
198588.0,-0.5265,-0.5889,0.6708,-10.6482,-8.5592,-10.5363,305.84,13.97,-45.53
198602.0,-0.4992,-0.5928,0.6708,-9.9526,-10.8548,-8.7972,305.84,14.06,-45.51
198616.0,-0.4914,-0.5889,0.6747,-8.8395,-12.4548,-5.6668,305.84,14.14,-45.49
198630.0,-0.468,-0.585,0.6513,-6.3352,-13.3592,-4.4146,305.84,14.22,-45.47
198644.0,-0.4563,-0.5889,0.6435,-5.2221,-12.9418,-2.9537,305.85,14.3,-45.45
198658.0,-0.4524,-0.5811,0.6513,-4.1786,-12.107,0.1071,305.85,14.37,-45.43
198672.0,-0.4329,-0.5772,0.6474,-4.2482,-11.4113,0.7332,305.85,14.44,-45.41
198686.0,-0.4329,-0.5733,0.6435,-4.596,-10.2287,0.455,305.85,14.52,-45.39
198700.0,-0.4212,-0.5772,0.6474,-5.4308,-7.307,0.455,305.86,14.59,-45.37
198714.0,-0.4173,-0.585,0.6435,-5.8482,-6.4722,0.7332,305.86,14.65,-45.36
198728.0,-0.4134,-0.6006,0.6435,-5.7091,-6.82,1.7071,305.86,14.72,-45.35
198742.0,-0.4134,-0.6084,0.6396,-4.8743,-7.2374,1.4984,305.86,14.78,-45.34
198756.0,-0.4056,-0.6084,0.6435,-3.7613,-7.3766,0.0376,305.86,14.84,-45.33
198770.0,-0.3978,-0.6006,0.6396,-1.7439,-5.8461,-0.7972,305.86,14.9,-45.31
198784.0,-0.4056,-0.5928,0.6279,-1.1178,-5.2896,-1.5624,305.85,14.96,-45.3
198798.0,-0.4017,-0.5811,0.6279,-1.5352,-5.4287,-3.5103,305.85,15.02,-45.29
198812.0,-0.4017,-0.5928,0.6045,-2.1613,-5.5679,-4.2059,305.85,15.08,-45.29
198826.0,-0.3939,-0.5772,0.6123,-2.4395,-5.3592,-5.4581,305.85,15.14,-45.27
198840.0,-0.4056,-0.5694,0.6084,-2.7873,-4.1766,-6.1537,305.85,15.2,-45.26
198854.0,-0.4056,-0.5733,0.6201,-2.9265,-4.5244,-7.1972,305.84,15.26,-45.25
198868.0,-0.4056,-0.5811,0.6201,-4.0395,-4.5244,-8.2407,305.84,15.33,-45.24
198882.0,-0.4056,-0.5811,0.6279,-4.4569,-4.0374,-8.6581,305.84,15.39,-45.23
198896.0,-0.4134,-0.5967,0.6318,-4.7352,-1.8113,-9.5624,305.84,15.44,-45.22
198910.0,-0.4173,-0.585,0.6474,-3.483,-0.907,-10.1885,305.84,15.51,-45.2
198924.0,-0.4134,-0.5811,0.6513,-3.1352,-0.0026,-10.8842,305.83,15.57,-45.18
198938.0,-0.4134,-0.6006,0.6396,-2.5786,1.1104,-11.6494,305.83,15.62,-45.17
198952.0,-0.4173,-0.6045,0.6435,-2.2308,2.293,-11.5798,305.83,15.68,-45.16
198966.0,-0.4251,-0.5967,0.6396,-1.9526,3.1974,-12.4146,305.82,15.74,-45.15
198980.0,-0.4368,-0.6084,0.6357,-1.1178,2.8495,-12.4146,305.82,15.8,-45.15
198994.0,-0.4329,-0.6045,0.6396,-0.5613,2.0147,-12.345,305.81,15.86,-45.14
199008.0,-0.4173,-0.6045,0.6396,0.4822,-0.1418,-12.345,305.81,15.92,-45.13
199022.0,-0.4251,-0.6045,0.6396,1.1083,-1.0461,-12.4146,305.8,15.98,-45.12
199036.0,-0.4173,-0.6045,0.6435,1.7344,-1.0461,-12.5537,305.8,16.03,-45.11
199050.0,-0.4173,-0.5967,0.6435,2.2909,-0.7679,-12.832,305.79,16.09,-45.09
199064.0,-0.4173,-0.6006,0.6474,2.0127,-0.2113,-13.3885,305.79,16.14,-45.08
199078.0,-0.4212,-0.6123,0.6513,2.2909,0.693,-14.7798,305.79,16.2,-45.07
199092.0,-0.4368,-0.6201,0.6474,2.8474,1.1104,-15.0581,305.78,16.25,-45.06
199106.0,-0.4563,-0.6162,0.6357,4.03,2.2234,-14.919,305.77,16.32,-45.06
199120.0,-0.4641,-0.6201,0.624,6.3953,2.6408,-13.7363,305.77,16.38,-45.06
199134.0,-0.4719,-0.6162,0.6162,6.9518,2.7104,-11.9972,305.76,16.45,-45.06
199148.0,-0.4758,-0.6045,0.6006,6.4648,1.3191,-7.8233,305.75,16.52,-45.06
199162.0,-0.4719,-0.5967,0.5967,5.6996,0.2061,-6.0146,305.75,16.58,-45.06
199176.0,-0.4602,-0.5967,0.5967,4.7257,-2.9939,-5.0407,305.74,16.65,-45.06
199190.0,-0.4485,-0.6045,0.5928,3.1257,-4.4548,-5.0407,305.74,16.71,-45.06
199204.0,-0.4329,-0.6123,0.6006,2.5692,-5.22,-5.1103,305.73,16.77,-45.06
199218.0,-0.4134,-0.6201,0.6045,2.5692,-5.0113,-4.6929,305.73,16.82,-45.06
199232.0,-0.4095,-0.6162,0.6123,2.7779,-4.3157,-4.7624,305.72,16.87,-45.06
199246.0,-0.3978,-0.6123,0.6162,2.7083,-1.6026,-6.0146,305.71,16.91,-45.06
199260.0,-0.39,-0.6123,0.6123,2.7083,-0.0722,-6.9885,305.71,16.95,-45.06
199274.0,-0.3939,-0.6162,0.6084,2.5692,1.3887,-8.3103,305.7,17.0,-45.07
199288.0,-0.3978,-0.6123,0.6084,2.6387,3.4756,-9.9798,305.69,17.04,-45.07
199302.0,-0.3939,-0.6201,0.6123,2.4996,3.6147,-10.6755,305.69,17.09,-45.07
199316.0,-0.3939,-0.6279,0.6084,2.6387,3.7539,-11.4407,305.68,17.13,-45.07
199330.0,-0.3978,-0.6279,0.6084,3.0561,3.9626,-11.3016,305.67,17.17,-45.08
199344.0,-0.4134,-0.6162,0.6123,3.3344,3.893,-11.5798,305.66,17.22,-45.08
199358.0,-0.429,-0.6123,0.6045,3.6127,2.9887,-13.0407,305.65,17.27,-45.08
199372.0,-0.4368,-0.6045,0.6123,3.5431,2.2234,-13.8059,305.64,17.33,-45.08
199386.0,-0.4368,-0.6123,0.6162,2.9866,0.3452,-13.7363,305.64,17.38,-45.08
199400.0,-0.4407,-0.6123,0.6084,3.1257,-0.0026,-13.1103,305.63,17.43,-45.08
199414.0,-0.4602,-0.6084,0.6123,3.404,-0.6983,-12.0668,305.62,17.49,-45.08
199428.0,-0.468,-0.6045,0.6084,4.2387,-3.2026,-10.8146,305.62,17.55,-45.08
199442.0,-0.4524,-0.6084,0.6162,4.1692,-4.2461,-10.5363,305.61,17.61,-45.08
199456.0,-0.4485,-0.6123,0.6201,4.03,-3.62,-9.632,305.61,17.66,-45.07
199470.0,-0.4524,-0.6084,0.6084,3.8214,-2.507,-8.9363,305.6,17.72,-45.07
199484.0,-0.4563,-0.6123,0.6045,3.4735,-1.7418,-8.3798,305.59,17.77,-45.07
199498.0,-0.4485,-0.6162,0.6084,3.0561,-2.3679,-7.6146,305.59,17.83,-45.08
199512.0,-0.4407,-0.6162,0.6084,2.7083,-2.7157,-7.4059,305.58,17.88,-45.08
199526.0,-0.4368,-0.6162,0.6123,2.2909,-2.2287,-7.6146,305.58,17.93,-45.08
199545.0,-0.4329,-0.6201,0.6084,2.2909,-1.6026,-7.6842,305.57,18.0,-45.08
199559.0,-0.4368,-0.6084,0.5967,2.5692,-1.8809,-7.6146,305.56,18.05,-45.09
199573.0,-0.4329,-0.6006,0.5967,2.6387,-2.7157,-7.6146,305.55,18.1,-45.09
199587.0,-0.4173,-0.5889,0.5889,2.1518,-3.9679,-7.6146,305.55,18.15,-45.09
199601.0,-0.4212,-0.585,0.6045,1.5257,-4.2461,-7.8929,305.54,18.19,-45.08
199615.0,-0.4134,-0.5967,0.6045,0.5518,-3.8287,-9.0755,305.54,18.24,-45.08
199629.0,-0.4134,-0.6006,0.6084,-0.9786,-3.3418,-9.2146,305.53,18.28,-45.08
199643.0,-0.4095,-0.6045,0.6162,-0.8395,-2.8548,-9.2146,305.53,18.32,-45.07
199657.0,-0.4134,-0.6045,0.624,-0.0047,-2.02,-9.7016,305.52,18.37,-45.07
199671.0,-0.4134,-0.6045,0.6162,0.3431,-1.6026,-10.2581,305.52,18.41,-45.07
199685.0,-0.4173,-0.5967,0.6162,0.6909,-1.3939,-11.9277,305.51,18.45,-45.06
199699.0,-0.4095,-0.5928,0.6162,1.0387,-1.3244,-12.7624,305.51,18.49,-45.06
199713.0,-0.4095,-0.6006,0.624,0.9692,-0.9766,-13.319,305.5,18.53,-45.05
199727.0,-0.4173,-0.6006,0.6201,0.83,0.2756,-13.8755,305.5,18.58,-45.05
199741.0,-0.4134,-0.6006,0.624,0.83,1.0408,-14.432,305.49,18.62,-45.04
199755.0,-0.4329,-0.6045,0.624,0.9692,2.4321,-15.1972,305.48,18.66,-45.04
199769.0,-0.4368,-0.6045,0.6357,0.83,2.6408,-15.4059,305.48,18.71,-45.03
199783.0,-0.4446,-0.6162,0.6396,0.83,2.5713,-15.545,305.47,18.75,-45.02
199797.0,-0.4485,-0.624,0.6396,2.0127,2.8495,-15.0581,305.46,18.8,-45.02
199811.0,-0.4563,-0.6279,0.6201,3.404,2.6408,-14.5711,305.46,18.85,-45.02
199825.0,-0.4524,-0.6201,0.6123,4.8648,0.693,-13.319,305.45,18.9,-45.02
199839.0,-0.4368,-0.6084,0.6006,5.6996,-0.2809,-12.832,305.44,18.94,-45.03
199853.0,-0.4368,-0.5967,0.5967,5.63,-0.8374,-12.2755,305.43,18.99,-45.03
199867.0,-0.4329,-0.6045,0.5967,4.2387,-0.907,-11.5103,305.42,19.03,-45.03
199881.0,-0.4329,-0.6045,0.5967,3.5431,-1.3244,-11.3711,305.42,19.08,-45.03
199895.0,-0.429,-0.6084,0.6006,2.917,-1.8809,-11.719,305.41,19.12,-45.03
199909.0,-0.4212,-0.6201,0.6006,2.917,-1.6722,-12.0668,305.4,19.16,-45.04
199923.0,-0.4173,-0.6201,0.5967,3.1953,-1.4635,-12.345,305.39,19.2,-45.04
199937.0,-0.4212,-0.6162,0.6006,3.5431,-0.6983,-12.5537,305.38,19.23,-45.05
199951.0,-0.4251,-0.6201,0.5967,3.5431,-0.3505,-12.5537,305.37,19.27,-45.06
199965.0,-0.4212,-0.6162,0.6006,3.2648,-0.6287,-12.5537,305.37,19.31,-45.06
199979.0,-0.429,-0.6201,0.5928,3.1953,-1.2548,-12.4842,305.36,19.35,-45.07
199993.0,-0.4368,-0.6123,0.6006,2.9866,-2.02,-12.345,305.35,19.39,-45.07
200007.0,-0.429,-0.6123,0.6006,2.2214,-2.6461,-12.4146,305.34,19.43,-45.07
200021.0,-0.429,-0.6084,0.6123,1.9431,-2.5766,-12.2755,305.33,19.47,-45.07
200035.0,-0.4329,-0.6162,0.6045,1.317,-2.1592,-11.7885,305.33,19.51,-45.08
200049.0,-0.429,-0.6201,0.6084,1.2474,-2.3679,-11.6494,305.32,19.55,-45.08
200063.0,-0.4251,-0.6201,0.6084,1.317,-2.6461,-11.4407,305.31,19.59,-45.08
200077.0,-0.4251,-0.624,0.6123,1.317,-3.0635,-11.0233,305.3,19.62,-45.09
200091.0,-0.4212,-0.6279,0.6123,1.2474,-2.7157,-11.0233,305.3,19.66,-45.09
200105.0,-0.4251,-0.6279,0.6162,1.3866,-1.8113,-10.745,305.29,19.69,-45.1
200119.0,-0.4329,-0.6279,0.6123,1.6648,-1.1157,-10.4668,305.28,19.73,-45.1
200133.0,-0.4368,-0.6318,0.6084,2.0127,-1.4635,-10.8146,305.27,19.77,-45.11
200147.0,-0.4329,-0.6279,0.6045,2.2909,-2.507,-10.8842,305.26,19.8,-45.11
200161.0,-0.429,-0.6279,0.6162,2.6387,-2.7853,-10.6059,305.26,19.84,-45.12
200175.0,-0.4251,-0.624,0.6123,2.7779,-2.6461,-10.119,305.25,19.87,-45.12
200189.0,-0.429,-0.624,0.6045,2.5692,-2.7853,-9.9103,305.24,19.91,-45.12
200203.0,-0.4251,-0.6162,0.6084,2.5692,-2.9244,-9.4233,305.23,19.94,-45.12
200217.0,-0.429,-0.6162,0.6084,2.2909,-4.0374,-9.4233,305.23,19.98,-45.13
200231.0,-0.4134,-0.6162,0.6045,2.0127,-3.8983,-9.3537,305.22,20.01,-45.13
200245.0,-0.4212,-0.6123,0.6045,2.0822,-3.3418,-9.0059,305.21,20.04,-45.13
200259.0,-0.4173,-0.6123,0.6084,1.7344,-3.3418,-8.9363,305.21,20.08,-45.13
200273.0,-0.4173,-0.6123,0.6045,1.5257,-3.3418,-8.8668,305.2,20.11,-45.13
200287.0,-0.4095,-0.6084,0.6006,1.5953,-3.4113,-9.2842,305.2,20.14,-45.14
200301.0,-0.4056,-0.6084,0.6084,1.4561,-3.5505,-9.4929,305.19,20.17,-45.14
200315.0,-0.4095,-0.6123,0.6045,0.6909,-3.5505,-9.632,305.18,20.2,-45.14
200329.0,-0.4173,-0.6201,0.6123,0.4822,-3.3418,-9.7711,305.18,20.23,-45.14
200343.0,-0.4173,-0.6201,0.6162,0.7605,-3.2026,-10.2581,305.17,20.26,-45.14
200357.0,-0.4134,-0.624,0.6123,0.7605,-2.4374,-11.5103,305.16,20.29,-45.14
200371.0,-0.4212,-0.624,0.6084,0.83,-2.02,-11.3711,305.15,20.32,-45.15
200385.0,-0.4212,-0.6201,0.6162,1.0387,-1.9505,-10.8146,305.15,20.35,-45.15
200399.0,-0.4212,-0.624,0.6162,0.8996,-2.02,-10.6059,305.14,20.38,-45.15
200413.0,-0.4173,-0.6201,0.6201,1.0387,-2.1592,-10.6059,305.13,20.41,-45.15
200427.0,-0.4212,-0.6123,0.6201,0.9692,-2.3679,-10.745,305.13,20.44,-45.15
200441.0,-0.4173,-0.6201,0.6201,0.83,-2.1592,-10.8146,305.12,20.47,-45.15
200455.0,-0.4134,-0.6123,0.6123,1.5257,-2.1592,-10.8842,305.11,20.5,-45.15
200469.0,-0.4134,-0.6162,0.6123,1.7344,-2.1592,-11.0233,305.11,20.53,-45.15
200483.0,-0.4056,-0.6162,0.6162,1.804,-2.0896,-11.5798,305.1,20.55,-45.15
200497.0,-0.4056,-0.6201,0.6201,1.804,-1.1853,-11.7885,305.09,20.57,-45.15
200511.0,-0.4056,-0.6084,0.6162,2.0127,-0.6287,-12.2059,305.09,20.6,-45.15
200525.0,-0.4134,-0.6162,0.6084,2.3605,0.4147,-12.4146,305.08,20.63,-45.15
200539.0,-0.4134,-0.6162,0.6084,2.3605,0.4843,-12.6233,305.07,20.66,-45.15
200553.0,-0.4173,-0.6123,0.6084,2.0127,0.2061,-12.7624,305.06,20.69,-45.15
200567.0,-0.4212,-0.6123,0.6084,1.5953,-0.0722,-12.6233,305.06,20.72,-45.16
200581.0,-0.4134,-0.6123,0.6006,1.8735,-0.3505,-12.4146,305.05,20.74,-45.16
200595.0,-0.4173,-0.6123,0.6045,1.3866,-1.6722,-12.2755,305.04,20.77,-45.16
200609.0,-0.4017,-0.6162,0.5928,1.1779,-2.1592,-12.2755,305.03,20.8,-45.17
200623.0,-0.4056,-0.6084,0.5967,0.6909,-2.1592,-12.5537,305.03,20.82,-45.17
200637.0,-0.4056,-0.6084,0.5967,-0.283,-1.8809,-13.4581,305.02,20.85,-45.17
200651.0,-0.3861,-0.6006,0.6123,-1.5352,-1.8113,-14.2929,305.01,20.87,-45.17
200665.0,-0.39,-0.5928,0.624,-3.0656,-1.2548,-16.1016,305.01,20.89,-45.16
200679.0,-0.39,-0.6162,0.6279,-3.483,-0.42,-17.0059,305.0,20.9,-45.16
200693.0,-0.3978,-0.6162,0.6552,-3.6221,1.5278,-18.3972,305.0,20.92,-45.15
200707.0,-0.4173,-0.6552,0.6825,-2.0917,7.1626,-18.745,304.99,20.93,-45.15
200721.0,-0.4407,-0.6786,0.7098,-1.0482,9.8756,-18.5363,304.98,20.95,-45.14
200735.0,-0.4563,-0.7137,0.7059,1.5953,15.58,-17.3537,304.97,20.97,-45.14
200749.0,-0.4797,-0.78,0.6669,5.2127,18.293,-15.4059,304.95,21.0,-45.17
200763.0,-0.4914,-0.78,0.5967,10.7779,19.3365,-8.4494,304.93,21.03,-45.2
200777.0,-0.4953,-0.6981,0.4524,20.3083,9.6669,-5.1103,304.9,21.07,-45.25
200791.0,-0.4719,-0.624,0.39,20.3083,-1.0461,-3.719,304.88,21.12,-45.29
200805.0,-0.3744,-0.4875,0.3861,8.9692,-24.42,-4.6233,304.87,21.17,-45.32
200819.0,-0.3315,-0.4173,0.4173,-0.4917,-31.7939,-6.3624,304.87,21.21,-45.32
200833.0,-0.2964,-0.39,0.5304,-11.3439,-32.1418,-14.0146,304.9,21.23,-45.25
200847.0,-0.2691,-0.4368,0.5889,-29.6395,-25.8113,-19.3016,304.92,21.21,-45.19
200861.0,-0.2808,-0.4719,0.6474,-34.0917,-16.9766,-23.6146,304.94,21.19,-45.12
200875.0,-0.3198,-0.6708,0.7605,-33.883,3.0582,-31.1277,304.93,21.15,-45.1
200889.0,-0.3393,-0.7566,0.8112,-29.2917,14.4669,-31.1972,304.93,21.12,-45.1
200903.0,-0.3939,-0.8385,0.8346,-20.8743,34.9887,-26.8146,304.91,21.1,-45.11
200917.0,-0.4485,-0.8502,0.8034,3.9605,44.38,-23.4755,304.89,21.1,-45.12
200931.0,-0.4719,-0.8112,0.6981,16.0648,50.4321,-19.9972,304.86,21.12,-45.15
200945.0,-0.4992,-0.7956,0.6357,31.9953,51.4061,-15.1276,304.83,21.16,-45.18
200959.0,-0.5109,-0.7527,0.546,35.404,46.7452,-11.6494,304.81,21.2,-45.21
200973.0,-0.5304,-0.6513,0.4056,35.5431,22.5365,-5.4581,304.78,21.26,-45.25
200987.0,-0.5265,-0.6084,0.3549,24.9692,4.2408,-3.6494,304.76,21.32,-45.3
201001.0,-0.4563,-0.5304,0.3471,16.4127,-16.0722,-3.6494,304.74,21.38,-45.34
201015.0,-0.4095,-0.5031,0.3744,-2.7873,-45.0809,-7.1276,304.73,21.43,-45.37
201029.0,-0.3198,-0.5148,0.4719,-10.4395,-49.7418,-9.632,304.73,21.44,-45.38
201043.0,-0.3003,-0.546,0.5109,-16.2134,-40.907,-16.519,304.73,21.43,-45.39
201057.0,-0.2925,-0.5694,0.6045,-23.17,-30.7505,-19.6494,304.73,21.41,-45.38
201071.0,-0.3159,-0.6474,0.6435,-24.283,-19.1331,-21.7363,304.72,21.38,-45.39
201085.0,-0.3393,-0.6981,0.6747,-21.4308,3.6147,-24.7276,304.71,21.36,-45.4
201099.0,-0.3861,-0.7761,0.7215,-16.7004,13.0756,-26.2581,304.7,21.35,-45.42
201113.0,-0.4173,-0.78,0.7176,-11.0656,29.0061,-24.3798,304.68,21.35,-45.44
201127.0,-0.4758,-0.78,0.6864,3.2648,31.8582,-22.1537,304.66,21.37,-45.46
201141.0,-0.4914,-0.7683,0.6591,9.0387,31.5104,-19.5103,304.64,21.4,-45.48
201155.0,-0.4992,-0.7371,0.5772,15.8561,23.9974,-13.945,304.61,21.44,-45.51
201169.0,-0.4992,-0.7098,0.5421,17.1779,18.1539,-11.3016,304.59,21.48,-45.55
201183.0,-0.4914,-0.6825,0.5031,15.0214,2.2234,-6.1537,304.57,21.52,-45.58
201197.0,-0.4524,-0.624,0.4524,12.3779,-6.9592,-4.0668,304.56,21.56,-45.62
201211.0,-0.4368,-0.5889,0.4485,8.204,-15.9331,-2.6059,304.54,21.6,-45.65
201225.0,-0.3783,-0.5382,0.4797,-1.7439,-28.8026,-4.4146,304.54,21.63,-45.66
201239.0,-0.351,-0.5421,0.507,-6.6134,-30.2635,-7.1276,304.54,21.64,-45.67
201253.0,-0.3354,-0.5811,0.5733,-14.1265,-24.2113,-13.1103,304.54,21.64,-45.67
201267.0,-0.3354,-0.6123,0.6045,-15.6569,-18.507,-15.2668,304.53,21.63,-45.67
201281.0,-0.3393,-0.6435,0.663,-15.6569,-11.8983,-16.6581,304.53,21.62,-45.66
201295.0,-0.3744,-0.7332,0.6864,-10.996,2.293,-19.232,304.52,21.61,-45.68
201309.0,-0.3822,-0.7527,0.6864,-6.4743,9.2495,-19.0233,304.5,21.6,-45.69
201323.0,-0.4329,-0.7644,0.6552,4.7257,17.8756,-15.8233,304.49,21.61,-45.72
201337.0,-0.4446,-0.7605,0.6318,9.1779,17.3887,-13.6668,304.47,21.62,-45.74
201351.0,-0.4485,-0.7332,0.5655,12.0996,14.5365,-11.719,304.45,21.64,-45.78
201365.0,-0.4446,-0.7137,0.5382,14.3257,5.9104,-9.2842,304.43,21.67,-45.81
201379.0,-0.4407,-0.6747,0.4992,13.5605,0.693,-8.4494,304.41,21.7,-45.85
201393.0,-0.4056,-0.6474,0.4914,8.83,-10.6461,-6.9885,304.39,21.72,-45.88
201407.0,-0.3861,-0.6162,0.4953,5.4214,-14.8896,-6.7798,304.38,21.74,-45.91
201421.0,-0.3588,-0.6045,0.5187,1.804,-16.7679,-7.3363,304.37,21.75,-45.92
201435.0,-0.3549,-0.6006,0.5343,-3.97,-14.1939,-11.232,304.36,21.76,-45.94
201449.0,-0.3588,-0.6357,0.5694,-5.7786,-10.8548,-13.2494,304.35,21.76,-45.96
201463.0,-0.3666,-0.6513,0.5811,-6.683,-3.7592,-15.7537,304.34,21.76,-45.97
201477.0,-0.3783,-0.6903,0.6162,-5.9873,-0.7679,-16.5885,304.33,21.76,-45.99
201491.0,-0.3978,-0.7098,0.6279,-4.8743,2.1539,-17.2842,304.32,21.76,-46.01
201505.0,-0.4056,-0.7254,0.6318,-1.1873,7.0234,-16.8668,304.3,21.77,-46.03
201519.0,-0.4251,-0.7371,0.6279,0.83,8.4147,-15.6842,304.28,21.78,-46.05
201533.0,-0.4329,-0.7371,0.6123,5.7692,7.2321,-13.1103,304.27,21.79,-46.08
201552.0,-0.429,-0.7215,0.5928,7.9953,3.2669,-10.8146,304.25,21.81,-46.11
201566.0,-0.4134,-0.6981,0.5577,10.7083,0.7626,-9.3537,304.23,21.83,-46.14
201580.0,-0.4095,-0.6864,0.5343,10.6387,-1.7418,-8.2407,304.22,21.84,-46.17
201594.0,-0.3978,-0.663,0.5109,8.5518,-6.6113,-6.919,304.2,21.86,-46.2
201608.0,-0.3783,-0.6513,0.507,7.1605,-8.5592,-7.4059,304.18,21.87,-46.23
201622.0,-0.3705,-0.6396,0.5148,5.4214,-9.1157,-9.2146,304.17,21.88,-46.25
201636.0,-0.3549,-0.6357,0.5343,1.4561,-7.307,-10.4668,304.16,21.89,-46.28
201650.0,-0.3588,-0.6435,0.5421,-0.4917,-4.4548,-11.719,304.15,21.89,-46.3
201664.0,-0.3783,-0.6591,0.5616,-3.2047,0.9017,-14.1537,304.13,21.9,-46.32
201678.0,-0.3939,-0.6747,0.5694,-3.3439,3.0582,-15.0581,304.12,21.91,-46.34
201692.0,-0.4017,-0.6942,0.585,-2.7178,4.5887,-16.1016,304.1,21.92,-46.37
201706.0,-0.4095,-0.6942,0.5928,-1.1873,4.7974,-15.6842,304.09,21.93,-46.39
201720.0,-0.4095,-0.7059,0.6006,-0.4221,4.7974,-15.1276,304.07,21.94,-46.41
201734.0,-0.4212,-0.7059,0.6045,1.1083,3.3365,-13.7363,304.06,21.95,-46.43
201748.0,-0.4134,-0.7059,0.6006,2.0127,2.293,-13.0407,304.05,21.96,-46.45
201762.0,-0.4095,-0.702,0.585,3.1953,0.4843,-11.3016,304.03,21.97,-46.47
201776.0,-0.4017,-0.6942,0.5811,5.63,-0.6983,-10.6755,304.02,21.98,-46.49
201790.0,-0.3822,-0.6786,0.5616,6.3257,-1.2548,-10.2581,304.01,21.98,-46.51
201804.0,-0.3861,-0.6747,0.5616,6.1866,-1.6026,-10.6755,304.0,21.99,-46.53
201818.0,-0.3783,-0.6669,0.5577,5.9083,-1.6722,-11.0233,303.98,22.0,-46.55
201832.0,-0.3822,-0.6669,0.546,4.9344,-0.2113,-11.6494,303.97,22.01,-46.58
201846.0,-0.3783,-0.6669,0.5382,4.9344,0.4147,-11.7885,303.95,22.02,-46.6
201860.0,-0.39,-0.6669,0.5226,5.0735,0.2061,-11.6494,303.94,22.03,-46.63
201874.0,-0.39,-0.6591,0.5148,5.1431,-2.5766,-11.3711,303.92,22.04,-46.66
201888.0,-0.3861,-0.6435,0.507,4.5866,-4.5939,-11.5103,303.91,22.06,-46.69
201902.0,-0.3861,-0.6474,0.5109,2.3605,-8.0026,-12.2059,303.89,22.07,-46.71
201916.0,-0.3861,-0.6669,0.5265,0.8996,-9.2548,-12.6233,303.88,22.08,-46.74
201930.0,-0.3861,-0.6825,0.5148,-0.4221,-10.2287,-12.5537,303.86,22.09,-46.78
201944.0,-0.3939,-0.6942,0.5226,-2.0917,-13.3592,-12.1363,303.85,22.1,-46.81
201958.0,-0.4017,-0.6981,0.5577,-3.2743,-15.7939,-12.9016,303.84,22.1,-46.84
201972.0,-0.4017,-0.7293,0.5967,-9.5352,-16.5592,-14.2233,303.83,22.1,-46.86
201986.0,-0.4017,-0.7527,0.663,-12.3178,-14.6113,-15.4059,303.82,22.1,-46.88
202000.0,-0.3978,-0.7761,0.6903,-13.9178,-10.7853,-15.8929,303.81,22.08,-46.89
202014.0,-0.3783,-0.7839,0.7605,-13.083,1.3887,-14.919,303.81,22.06,-46.89
202028.0,-0.39,-0.78,0.7644,-10.4395,10.0843,-14.0146,303.8,22.04,-46.88
202042.0,-0.3939,-0.78,0.7839,-1.1178,30.0495,-13.2494,303.8,22.02,-46.87
202056.0,-0.4095,-0.7605,0.7449,6.0474,40.2756,-12.1363,303.78,22.02,-46.87
202070.0,-0.4251,-0.741,0.6708,15.717,48.2756,-9.5624,303.77,22.03,-46.87
202084.0,-0.4368,-0.6474,0.5187,35.0561,51.893,-1.0755,303.75,22.07,-46.89
202098.0,-0.429,-0.6045,0.4407,41.804,46.6061,3.0984,303.72,22.12,-46.92
202112.0,-0.4251,-0.5499,0.2886,44.1692,23.3017,10.6115,303.7,22.18,-46.96
202126.0,-0.4095,-0.5382,0.2496,38.2561,6.2582,12.281,303.67,22.23,-47.01
202140.0,-0.39,-0.507,0.273,27.7518,-12.5939,12.281,303.66,22.28,-47.06
202154.0,-0.3081,-0.5499,0.2886,-1.1178,-46.6809,6.7158,303.64,22.3,-47.12
202168.0,-0.2691,-0.5694,0.3666,-15.2395,-55.6548,2.1245,303.63,22.28,-47.17
202182.0,-0.2652,-0.6474,0.468,-36.7352,-57.9505,-10.6755,303.62,22.25,-47.21
202196.0,-0.2808,-0.6903,0.5421,-43.5526,-54.7505,-18.8146,303.62,22.21,-47.25
202210.0,-0.2769,-0.8073,0.6864,-47.9352,-48.907,-27.1624,303.61,22.15,-47.28
202224.0,-0.2808,-0.8541,0.7332,-42.7178,-24.9766,-36.9711,303.6,22.09,-47.3
202238.0,-0.312,-0.8775,0.7722,-32.0047,-7.5157,-37.3885,303.59,22.03,-47.32
202252.0,-0.3159,-0.8463,0.7683,-5.083,30.7452,-35.0233,303.57,21.98,-47.33
202266.0,-0.3588,-0.7761,0.6669,6.4648,46.3974,-33.5624,303.55,21.97,-47.35
202280.0,-0.4173,-0.6747,0.6318,14.6735,56.3452,-31.6146,303.53,21.99,-47.35
202294.0,-0.4485,-0.6318,0.5889,21.7692,63.1626,-25.3537,303.51,22.03,-47.35
202308.0,-0.4914,-0.5928,0.5031,21.1431,60.5887,-22.1537,303.49,22.09,-47.36
202322.0,-0.5109,-0.5889,0.468,14.8822,42.6408,-14.5711,303.47,22.15,-47.38
202336.0,-0.5343,-0.6084,0.4329,10.2214,27.6843,-10.745,303.45,22.22,-47.41
202350.0,-0.5226,-0.6279,0.4407,5.2127,10.4321,-7.6146,303.43,22.27,-47.44
202364.0,-0.5031,-0.702,0.4758,-2.37,-20.4548,-4.9016,303.42,22.31,-47.48
202378.0,-0.4329,-0.7293,0.5031,-3.8308,-29.4983,-4.5537,303.41,22.32,-47.52
202392.0,-0.4212,-0.7449,0.5148,-5.3613,-34.9244,-5.3885,303.4,22.33,-47.56
202406.0,-0.4056,-0.7722,0.546,-5.9178,-34.1592,-6.2233,303.39,22.33,-47.59
202420.0,-0.3978,-0.78,0.5538,-6.0569,-31.4461,-7.8929,303.37,22.32,-47.63
202434.0,-0.4017,-0.78,0.5733,-3.6917,-21.22,-8.032,303.36,22.32,-47.67
202448.0,-0.3939,-0.7644,0.5889,-1.4656,-14.7505,-8.2407,303.35,22.32,-47.69
202462.0,-0.3978,-0.7371,0.585,2.2214,0.7626,-8.3103,303.34,22.32,-47.72
202476.0,-0.4134,-0.7098,0.5772,3.8214,7.9278,-7.4059,303.33,22.33,-47.73
202490.0,-0.4251,-0.6903,0.546,5.1431,12.5887,-5.4581,303.31,22.35,-47.76
202504.0,-0.4407,-0.6591,0.5109,7.0214,12.7974,-4.0668,303.3,22.38,-47.78
202518.0,-0.4329,-0.6552,0.4953,7.2996,9.7365,-2.6059,303.28,22.41,-47.81
202532.0,-0.4212,-0.6435,0.4719,6.5344,-0.42,0.3854,303.27,22.44,-47.83
202546.0,-0.4173,-0.6513,0.468,4.7257,-6.9592,1.8463,303.26,22.47,-47.87
202560.0,-0.3822,-0.6708,0.4914,2.0822,-14.2635,2.4028,303.24,22.48,-47.9
202574.0,-0.3627,-0.6864,0.5109,-4.1091,-24.0026,1.6376,303.24,22.48,-47.93
202588.0,-0.351,-0.6981,0.5421,-6.2656,-25.6722,0.3158,303.23,22.47,-47.95
202602.0,-0.3471,-0.7293,0.546,-7.9352,-25.2548,-3.5798,303.22,22.45,-47.98
202616.0,-0.3471,-0.7332,0.5655,-7.7265,-23.7939,-5.5276,303.21,22.44,-48.01
202630.0,-0.351,-0.7449,0.5928,-7.17,-21.5679,-9.0059,303.2,22.42,-48.03
202644.0,-0.3471,-0.7449,0.6084,-5.1526,-13.7766,-10.3972,303.19,22.4,-48.05
202658.0,-0.3588,-0.7449,0.6318,-3.6221,-7.8635,-11.5798,303.19,22.38,-48.06
202672.0,-0.3744,-0.7449,0.624,0.9692,6.0495,-12.2059,303.18,22.37,-48.08
202686.0,-0.3939,-0.7176,0.585,3.4735,10.9191,-11.5798,303.16,22.37,-48.09
202700.0,-0.4251,-0.6942,0.5616,5.4909,13.2843,-9.8407,303.15,22.39,-48.11
202714.0,-0.4329,-0.6786,0.5499,7.2996,10.5017,-9.0755,303.14,22.41,-48.13
202728.0,-0.4212,-0.6786,0.5226,7.23,7.58,-8.1711,303.12,22.43,-48.15
202742.0,-0.4251,-0.6708,0.5148,7.23,1.7365,-4.6929,303.11,22.46,-48.17
202756.0,-0.4212,-0.6669,0.507,6.8127,-1.9505,-3.1624,303.1,22.48,-48.19
202770.0,-0.4095,-0.6708,0.5031,6.0474,-5.9853,-2.1885,303.09,22.5,-48.22
202784.0,-0.3861,-0.6903,0.5148,3.9605,-12.2461,-2.3972,303.08,22.5,-48.25
202798.0,-0.3822,-0.702,0.5148,3.1257,-13.7766,-3.0929,303.07,22.51,-48.28
202812.0,-0.3783,-0.7098,0.5187,1.5257,-13.707,-4.2755,303.06,22.51,-48.31
202826.0,-0.3744,-0.7215,0.5226,0.7605,-13.0809,-4.9711,303.04,22.51,-48.34
202840.0,-0.3822,-0.7176,0.5304,-0.0743,-10.507,-6.432,303.03,22.51,-48.37
202854.0,-0.3822,-0.7215,0.546,-0.9091,-8.6287,-6.9885,303.02,22.51,-48.39
202868.0,-0.39,-0.7215,0.5538,-1.0482,-6.5418,-7.545,303.01,22.51,-48.42
202882.0,-0.3978,-0.7293,0.5655,-0.2134,-2.0896,-8.2407,303.0,22.51,-48.44
202896.0,-0.4056,-0.7098,0.5733,0.4822,0.2061,-8.1016,302.99,22.52,-48.46
202910.0,-0.4134,-0.6981,0.5499,0.9692,2.293,-6.9885,302.98,22.53,-48.48
202924.0,-0.4251,-0.6903,0.5538,2.2909,1.5974,-6.5016,302.97,22.55,-48.49
202938.0,-0.4212,-0.6903,0.546,2.7779,0.2756,-6.0146,302.96,22.57,-48.51
202952.0,-0.4212,-0.6825,0.5343,3.2648,-3.1331,-4.832,302.95,22.58,-48.53
202966.0,-0.4134,-0.6825,0.5304,3.6127,-5.1505,-3.7885,302.94,22.6,-48.55
202980.0,-0.4095,-0.6786,0.5265,3.6127,-9.5331,-2.1885,302.93,22.61,-48.57
202994.0,-0.4056,-0.6786,0.5148,2.7083,-11.4113,-2.0494,302.92,22.63,-48.59
203008.0,-0.3978,-0.6864,0.5265,2.7083,-12.8026,-2.2581,302.91,22.64,-48.61
203022.0,-0.3861,-0.6903,0.5265,1.9431,-14.2635,-3.3711,302.9,22.64,-48.63
203036.0,-0.3822,-0.6942,0.5304,1.1779,-14.0548,-3.8581,302.89,22.64,-48.66
203050.0,-0.3822,-0.702,0.5304,0.4127,-12.5939,-4.6929,302.88,22.65,-48.68
203064.0,-0.3822,-0.702,0.5382,-0.8395,-12.0374,-5.3885,302.87,22.65,-48.7
203078.0,-0.3783,-0.7059,0.5538,-1.5352,-11.1331,-6.0146,302.87,22.64,-48.72
203092.0,-0.3783,-0.7098,0.5616,-2.2308,-8.5592,-6.5016,302.86,22.64,-48.74
203106.0,-0.3822,-0.702,0.5811,-1.6743,-6.7505,-7.1276,302.85,22.64,-48.75
203120.0,-0.3861,-0.702,0.5772,-0.2134,-2.8548,-8.1711,302.84,22.64,-48.76
203134.0,-0.3939,-0.6981,0.5811,0.83,-1.6722,-8.3798,302.84,22.64,-48.77
203148.0,-0.3939,-0.6903,0.5694,1.317,-1.7418,-8.3798,302.83,22.65,-48.78
203162.0,-0.3939,-0.6825,0.5616,1.6648,-3.2026,-7.9624,302.82,22.65,-48.79
203176.0,-0.39,-0.6747,0.5538,2.0822,-3.8983,-7.6842,302.82,22.66,-48.8
203190.0,-0.39,-0.6708,0.5577,2.4996,-4.8722,-7.6842,302.81,22.67,-48.81
203204.0,-0.3822,-0.6786,0.5616,2.5692,-5.22,-7.9624,302.8,22.67,-48.82
203218.0,-0.3822,-0.6747,0.5655,2.4996,-5.2896,-8.4494,302.8,22.67,-48.83
203232.0,-0.3822,-0.6825,0.5577,2.43,-4.5939,-9.4233,302.79,22.67,-48.84
203246.0,-0.3861,-0.6903,0.5499,2.4996,-4.3853,-9.8407,302.78,22.67,-48.86
203260.0,-0.3939,-0.6903,0.5499,2.9866,-4.7331,-10.745,302.77,22.68,-48.87
203274.0,-0.39,-0.6942,0.5499,2.8474,-4.6635,-11.232,302.77,22.68,-48.89
203288.0,-0.3861,-0.6903,0.5538,2.6387,-4.107,-11.5798,302.76,22.69,-48.9
203302.0,-0.3939,-0.6942,0.5616,1.9431,-2.3679,-12.0668,302.75,22.69,-48.92
203316.0,-0.3978,-0.6942,0.5616,1.804,-1.8809,-12.1363,302.74,22.69,-48.93
203330.0,-0.4017,-0.6981,0.5577,1.9431,-1.9505,-12.1363,302.73,22.7,-48.95
203344.0,-0.3978,-0.702,0.5616,2.0822,-2.1592,-11.7885,302.72,22.71,-48.96
203358.0,-0.3939,-0.702,0.5655,2.43,-2.2287,-11.0929,302.71,22.71,-48.97
203372.0,-0.3978,-0.6903,0.5616,2.917,-1.7418,-9.7711,302.71,22.71,-48.99
203386.0,-0.3939,-0.6864,0.5616,2.9866,-1.6026,-9.7711,302.7,22.72,-49.0
203400.0,-0.3861,-0.6903,0.5616,2.8474,-1.2548,-10.5363,302.69,22.72,-49.01
203414.0,-0.39,-0.6864,0.5616,2.9866,-1.1853,-10.6755,302.68,22.72,-49.02
203428.0,-0.39,-0.6864,0.5577,3.1953,-1.1157,-10.8842,302.67,22.73,-49.03
203442.0,-0.39,-0.6903,0.5577,3.404,-1.2548,-11.232,302.67,22.73,-49.04
203456.0,-0.39,-0.6903,0.5538,3.4735,-1.3244,-11.3711,302.66,22.74,-49.06
203470.0,-0.3822,-0.6942,0.5499,3.0561,-0.8374,-11.5103,302.65,22.74,-49.07
203484.0,-0.3861,-0.6903,0.5538,2.8474,-0.4896,-11.232,302.64,22.74,-49.08
203498.0,-0.4017,-0.6942,0.5499,2.7779,-0.2809,-10.9537,302.63,22.75,-49.1
203512.0,-0.3939,-0.6903,0.546,2.8474,-0.8374,-11.3016,302.62,22.75,-49.12
203526.0,-0.3939,-0.6981,0.546,2.7083,-1.1157,-11.719,302.61,22.76,-49.13
203540.0,-0.3978,-0.6981,0.546,2.7779,-0.5592,-11.719,302.6,22.76,-49.15
203559.0,-0.3939,-0.6981,0.5499,2.9866,-0.6983,-11.7885,302.59,22.77,-49.17
203573.0,-0.3978,-0.6981,0.546,2.7083,-0.907,-11.4407,302.58,22.78,-49.19
203587.0,-0.4017,-0.6942,0.546,2.7083,-1.0461,-10.745,302.57,22.78,-49.2
203601.0,-0.3978,-0.702,0.5499,2.0822,-1.3939,-10.745,302.56,22.79,-49.22
203615.0,-0.4056,-0.6981,0.5577,1.804,-1.0461,-10.8842,302.55,22.8,-49.23
203629.0,-0.3939,-0.6942,0.5577,1.7344,0.5539,-10.6059,302.54,22.8,-49.25
203643.0,-0.4134,-0.6825,0.507,4.7953,0.0669,-9.2146,302.53,22.82,-49.27
203657.0,-0.4173,-0.6786,0.4797,7.2996,-2.9244,-7.2668,302.52,22.83,-49.3
203671.0,-0.4056,-0.6708,0.4251,8.0648,-14.7505,-5.5972,302.5,22.85,-49.33
203685.0,-0.3744,-0.6669,0.4212,5.5605,-21.1505,-6.5016,302.49,22.86,-49.37
203699.0,-0.351,-0.6552,0.4485,1.0387,-25.3244,-10.9537,302.48,22.86,-49.4
203713.0,-0.3276,-0.663,0.5265,-13.0134,-22.9592,-13.945,302.47,22.84,-49.42
203727.0,-0.3354,-0.6825,0.5733,-20.3873,-18.0896,-16.7972,302.47,22.82,-49.43
203741.0,-0.3549,-0.7605,0.6786,-26.8569,-5.22,-21.4581,302.47,22.79,-49.43
203755.0,-0.3822,-0.7761,0.7254,-25.4656,2.7104,-21.5276,302.47,22.77,-49.42
203769.0,-0.4095,-0.8034,0.7449,-21.1526,16.8321,-17.8407,302.47,22.75,-49.41
203783.0,-0.4251,-0.7917,0.7059,-1.4656,22.1191,-14.7103,302.46,22.74,-49.41
203797.0,-0.4446,-0.7722,0.5577,12.3779,23.9278,-11.5798,302.44,22.76,-49.43
203811.0,-0.4329,-0.6825,0.4953,31.9257,14.8147,-4.4842,302.43,22.79,-49.45
203825.0,-0.4134,-0.6435,0.4446,33.9431,6.6756,-1.7711,302.41,22.81,-49.47
203839.0,-0.3978,-0.5616,0.4173,22.2561,-11.9679,-0.8668,302.41,22.85,-49.49
203853.0,-0.3939,-0.5577,0.4368,8.9692,-19.2026,-3.7885,302.41,22.88,-49.5
203867.0,-0.3783,-0.6591,0.4992,-5.1526,-24.1418,-8.2407,302.4,22.88,-49.52
203881.0,-0.3978,-0.7176,0.5538,-20.0395,-23.5853,-14.1537,302.39,22.88,-49.54
203895.0,-0.4134,-0.819,0.663,-21.2221,-20.107,-15.545,302.39,22.87,-49.55
203909.0,-0.4212,-0.8697,0.6708,-11.8308,-7.3766,-13.4581,302.38,22.85,-49.57
203923.0,-0.4212,-0.8892,0.6474,-0.4221,-0.5592,-8.9363,302.37,22.84,-49.6
203937.0,-0.4407,-0.7917,0.5382,12.5866,3.6843,-3.5103,302.35,22.85,-49.63
203951.0,-0.4368,-0.7332,0.4719,26.917,-0.1418,5.881,302.34,22.87,-49.66
203965.0,-0.39,-0.6123,0.4056,26.43,-6.4026,6.7158,302.33,22.9,-49.69
203979.0,-0.3588,-0.5616,0.4251,10.9866,-18.5766,3.5158,302.32,22.92,-49.7
203993.0,-0.3159,-0.5772,0.4758,-1.0482,-21.5679,0.455,302.32,22.91,-49.7
204007.0,-0.3081,-0.6045,0.5187,-11.5526,-21.3592,-3.232,302.33,22.9,-49.7
204021.0,-0.3276,-0.6396,0.5577,-23.3786,-15.5853,-9.0059,302.33,22.88,-49.7
204035.0,-0.3588,-0.7371,0.624,-24.4221,-13.2896,-11.5103,302.33,22.86,-49.71
204049.0,-0.3744,-0.7878,0.6435,-15.1004,-8.907,-10.5363,302.32,22.84,-49.72
204063.0,-0.3666,-0.8073,0.624,-6.196,-7.6548,-7.9624,302.32,22.82,-49.74
204077.0,-0.3822,-0.7683,0.5967,2.9866,-6.7505,-4.7624,302.31,22.81,-49.75
204091.0,-0.3588,-0.6903,0.5616,12.2387,-9.8113,-3.232,302.31,22.8,-49.76
204105.0,-0.3393,-0.6591,0.5577,10.9866,-11.2026,-4.5537,302.31,22.79,-49.75
204119.0,-0.3315,-0.6396,0.5811,3.2648,-10.02,-8.7276,302.31,22.77,-49.74
204133.0,-0.3276,-0.663,0.5967,-0.9091,-7.3766,-10.8842,302.31,22.75,-49.73
204147.0,-0.3471,-0.6864,0.6006,-3.5526,-4.107,-12.4146,302.31,22.73,-49.72
204161.0,-0.3783,-0.7371,0.6123,-2.2308,1.5278,-13.5276,302.31,22.72,-49.73
204175.0,-0.3822,-0.7488,0.6045,0.9692,2.5713,-12.7624,302.3,22.71,-49.74
204189.0,-0.3822,-0.7371,0.5733,7.9953,2.5017,-10.0494,302.29,22.71,-49.75
204203.0,-0.3861,-0.7098,0.5616,10.0822,2.0843,-8.9363,302.29,22.71,-49.76
204217.0,-0.3822,-0.6747,0.5343,10.5692,1.18,-9.0755,302.28,22.71,-49.77
204231.0,-0.3666,-0.663,0.5226,7.717,-0.6983,-10.0494,302.27,22.72,-49.78
204245.0,-0.3588,-0.6591,0.5226,5.63,-1.1853,-10.3277,302.26,22.72,-49.79
204259.0,-0.3588,-0.6708,0.5265,1.8735,-1.1157,-11.232,302.26,22.72,-49.8
204273.0,-0.3588,-0.6825,0.5265,0.6909,-0.6983,-11.7885,302.25,22.71,-49.82
204287.0,-0.3627,-0.702,0.5421,0.0648,-0.2809,-12.1363,302.24,22.71,-49.84
204301.0,-0.3666,-0.7059,0.546,0.204,-0.2809,-12.9016,302.23,22.7,-49.85
204315.0,-0.3705,-0.7059,0.5577,0.7605,-0.0026,-13.4581,302.22,22.7,-49.86
204329.0,-0.3666,-0.7059,0.5655,0.6909,1.2495,-14.9885,302.21,22.69,-49.87
204343.0,-0.3666,-0.7059,0.5733,0.6909,2.5017,-15.4059,302.21,22.68,-49.88
204357.0,-0.3744,-0.7137,0.5733,0.9692,3.4061,-15.4755,302.2,22.68,-49.89
204371.0,-0.3861,-0.7098,0.5694,1.804,3.893,-14.5016,302.19,22.68,-49.9
204385.0,-0.3939,-0.7098,0.5733,2.43,3.5452,-13.7363,302.19,22.68,-49.91
204399.0,-0.39,-0.7059,0.5733,3.8909,2.293,-12.6233,302.18,22.68,-49.92
204413.0,-0.3861,-0.702,0.5616,4.1692,2.1539,-12.4146,302.17,22.68,-49.93
204427.0,-0.3861,-0.6981,0.5538,4.517,2.1539,-11.9277,302.16,22.68,-49.94
204441.0,-0.3861,-0.7059,0.5382,5.2127,1.1104,-11.5798,302.16,22.69,-49.95
204455.0,-0.3783,-0.6981,0.5382,5.2822,-0.0026,-11.0929,302.15,22.69,-49.97
204469.0,-0.3666,-0.6981,0.5304,5.2127,-2.0896,-10.8842,302.14,22.69,-49.98
204483.0,-0.3549,-0.6942,0.5304,4.3779,-2.2287,-11.0929,302.13,22.68,-50.0
204497.0,-0.3588,-0.702,0.5421,3.3344,-1.8113,-11.5798,302.12,22.67,-50.01
204511.0,-0.3549,-0.7059,0.5421,1.804,-0.5592,-11.9972,302.11,22.67,-50.03
204525.0,-0.351,-0.7098,0.546,1.6648,0.1365,-12.6929,302.1,22.66,-50.04
204539.0,-0.3588,-0.702,0.5538,2.1518,0.8321,-14.2929,302.1,22.65,-50.05
204553.0,-0.3549,-0.7098,0.5655,2.3605,1.18,-14.7103,302.09,22.64,-50.06
204567.0,-0.3588,-0.6981,0.5694,2.4996,1.8756,-14.6407,302.08,22.63,-50.07
204581.0,-0.3666,-0.702,0.5655,2.43,2.4321,-14.919,302.08,22.62,-50.08
204595.0,-0.3744,-0.6942,0.5694,2.6387,2.78,-15.3363,302.07,22.62,-50.08
204609.0,-0.3744,-0.702,0.5655,3.4735,2.78,-15.545,302.07,22.62,-50.09
204623.0,-0.3783,-0.7059,0.5694,3.8909,2.5017,-15.1972,302.06,22.61,-50.1
204637.0,-0.3744,-0.7059,0.5655,4.3779,2.293,-13.945,302.05,22.61,-50.1
204651.0,-0.3705,-0.7059,0.5538,5.0735,2.1539,-13.4581,302.05,22.61,-50.11
204665.0,-0.3744,-0.7059,0.5499,5.63,1.8061,-13.2494,302.04,22.61,-50.13
204679.0,-0.3627,-0.702,0.5499,5.2822,0.9713,-13.4581,302.03,22.6,-50.14
204693.0,-0.3588,-0.7059,0.5538,4.7953,1.1104,-13.6668,302.02,22.59,-50.15
204707.0,-0.3666,-0.7176,0.546,4.517,1.7365,-13.6668,302.01,22.59,-50.16
204721.0,-0.3666,-0.7176,0.5421,4.517,2.1539,-13.5972,302.0,22.58,-50.18
204735.0,-0.3744,-0.7215,0.5382,4.517,2.1539,-13.1798,301.99,22.58,-50.2
204749.0,-0.3705,-0.7176,0.5382,5.004,1.18,-12.4146,301.98,22.58,-50.22
204763.0,-0.3744,-0.7137,0.5343,4.9344,0.8321,-12.4842,301.98,22.58,-50.23
204777.0,-0.3627,-0.7098,0.5382,4.6561,0.9017,-12.7624,301.97,22.57,-50.25
204791.0,-0.3627,-0.7059,0.5382,3.3344,0.9713,-12.9016,301.96,22.57,-50.26
204805.0,-0.3744,-0.7098,0.5499,2.4996,1.1104,-13.1103,301.95,22.57,-50.28
204819.0,-0.3783,-0.7176,0.5499,1.9431,1.18,-13.0407,301.94,22.57,-50.29
204833.0,-0.3783,-0.7215,0.5499,2.43,0.9017,-12.345,301.93,22.56,-50.31
204847.0,-0.3783,-0.7215,0.5421,3.1953,-1.3244,-10.4668,301.93,22.56,-50.32
204861.0,-0.3627,-0.7098,0.5382,4.4474,-2.6461,-9.9798,301.92,22.56,-50.34
204875.0,-0.3549,-0.702,0.5343,4.3779,-3.4809,-9.8407,301.91,22.55,-50.35
204889.0,-0.351,-0.702,0.5343,2.917,-3.4113,-10.8146,301.9,22.54,-50.36
204903.0,-0.351,-0.6981,0.546,2.0127,-2.7157,-11.4407,301.9,22.53,-50.37
204917.0,-0.3549,-0.7098,0.546,1.2474,-2.02,-13.0407,301.89,22.53,-50.39
204931.0,-0.3549,-0.7215,0.5616,0.2735,-1.4635,-13.3885,301.89,22.52,-50.4
204945.0,-0.3588,-0.7293,0.5694,0.5518,-0.4896,-13.6668,301.88,22.5,-50.41
204959.0,-0.3705,-0.7293,0.5772,1.4561,2.0147,-13.1798,301.87,22.5,-50.42
204973.0,-0.3783,-0.7254,0.5733,2.0127,2.5017,-12.6233,301.87,22.49,-50.43
204987.0,-0.3822,-0.7215,0.5694,2.6387,2.0147,-11.4407,301.86,22.49,-50.44
205001.0,-0.3783,-0.7176,0.5616,3.9605,1.5278,-10.8146,301.86,22.49,-50.45
205015.0,-0.3705,-0.7059,0.5538,4.5866,1.1104,-10.2581,301.85,22.49,-50.45
205029.0,-0.3666,-0.6981,0.5382,4.7953,0.2756,-9.5624,301.84,22.49,-50.47
205043.0,-0.3627,-0.6942,0.5304,4.2387,-0.1418,-9.4233,301.84,22.49,-50.48
205057.0,-0.3549,-0.6981,0.5304,3.6822,-0.8374,-10.0494,301.83,22.48,-50.49
205071.0,-0.3432,-0.6981,0.5304,2.4996,-0.907,-10.5363,301.82,22.47,-50.51
205085.0,-0.351,-0.7098,0.5382,1.9431,-0.6287,-11.1624,301.82,22.46,-50.52
205099.0,-0.3588,-0.7137,0.5382,1.6648,-0.0722,-11.9277,301.81,22.46,-50.54
205113.0,-0.3627,-0.7215,0.5343,1.9431,-0.0722,-12.1363,301.8,22.45,-50.55
205127.0,-0.3588,-0.7293,0.546,2.0127,-0.0722,-12.2059,301.79,22.45,-50.57
205141.0,-0.3627,-0.7176,0.5538,2.0822,0.0669,-12.2059,301.78,22.44,-50.58
205155.0,-0.3705,-0.7254,0.5499,1.9431,0.2756,-12.0668,301.78,22.44,-50.6
205169.0,-0.3744,-0.7176,0.5538,1.5257,0.6234,-11.9277,301.77,22.43,-50.61
205183.0,-0.3666,-0.7254,0.5616,1.1083,1.18,-11.9277,301.76,22.43,-50.62
205197.0,-0.3627,-0.7332,0.5733,-0.0047,3.9626,-11.719,301.76,22.42,-50.63
205211.0,-0.3705,-0.7332,0.5772,-0.2134,5.9104,-11.4407,301.75,22.41,-50.64
205225.0,-0.39,-0.7254,0.5694,0.2735,6.8843,-10.9537,301.75,22.42,-50.64
