t_ms,ax,ay,az,gx,gy,gz,yaw,pitch,roll
16388.0,0.3315,-0.9594,0.0156,6.689,-0.7953,26.3379,275.13,-19.08,-80.34
16402.0,0.3042,-0.9516,0.0039,6.689,-0.7257,26.5466,275.21,-19.05,-80.37
16416.0,0.2964,-0.9477,0.0,7.1759,-5.8735,24.4597,275.3,-19.02,-80.4
16430.0,0.3081,-0.9438,0.0039,7.7325,-7.1257,23.4858,275.39,-18.99,-80.43
16444.0,0.3159,-0.9477,0.0117,7.4542,-7.1953,23.4162,275.47,-18.96,-80.45
16458.0,0.3198,-0.9516,0.0078,6.689,-5.5953,24.5988,275.56,-18.94,-80.48
16472.0,0.3237,-0.9555,0.0039,6.6194,-5.7344,24.6684,275.64,-18.91,-80.51
16486.0,0.3237,-0.9516,0.0,6.6194,-6.7779,24.6684,275.73,-18.89,-80.54
16500.0,0.3198,-0.9555,0.0039,7.1064,-7.5431,24.5293,275.82,-18.86,-80.57
16514.0,0.3276,-0.9555,0.0078,7.3846,-7.7518,24.5293,275.9,-18.84,-80.59
16528.0,0.3159,-0.9516,0.0039,7.3151,-7.1257,23.8336,275.99,-18.81,-80.62
16542.0,0.3237,-0.9516,0.0117,7.1064,-7.404,23.2771,276.07,-18.79,-80.65
16556.0,0.3237,-0.9555,0.0195,6.689,-6.3605,23.764,276.16,-18.77,-80.67
16570.0,0.3159,-0.9516,0.0078,6.3411,-5.9431,23.6945,276.24,-18.74,-80.7
16584.0,0.3159,-0.9516,0.0078,6.4107,-5.6648,23.6249,276.33,-18.71,-80.73
16598.0,0.3198,-0.9633,0.0039,6.5498,-6.2214,23.764,276.41,-18.69,-80.75
16612.0,0.3159,-0.9555,0.0117,6.6194,-6.3605,23.9032,276.5,-18.66,-80.78
16626.0,0.3081,-0.9594,0.0117,6.6194,-6.4301,23.6249,276.58,-18.64,-80.81
16640.0,0.3198,-0.9594,0.0117,6.8281,-6.8474,23.138,276.67,-18.61,-80.83
16654.0,0.3237,-0.9633,0.0117,6.9672,-6.9866,23.4858,276.75,-18.59,-80.86
16668.0,0.3237,-0.9594,0.0117,6.7585,-6.2909,24.5293,276.84,-18.56,-80.88
16682.0,0.3198,-0.9555,0.0078,6.4803,-5.9431,24.9466,276.92,-18.54,-80.91
16696.0,0.3198,-0.9555,0.0156,6.2716,-5.804,24.5293,277.0,-18.51,-80.93
16710.0,0.3159,-0.9633,0.0078,6.5498,-5.804,24.3206,277.09,-18.49,-80.96
16724.0,0.3276,-0.9516,0.0078,6.7585,-6.2909,24.3206,277.17,-18.46,-80.98
16738.0,0.3237,-0.9516,0.0078,6.7585,-5.8735,24.3901,277.26,-18.44,-81.01
16752.0,0.3198,-0.9594,0.0,6.8281,-5.7344,24.4597,277.34,-18.42,-81.03
16766.0,0.3237,-0.9555,0.0039,6.8977,-5.7344,24.1814,277.42,-18.39,-81.06
16780.0,0.3276,-0.9555,0.0039,6.9672,-6.0822,24.3206,277.5,-18.37,-81.09
16794.0,0.3198,-0.9594,0.0039,7.0368,-6.4996,24.5988,277.59,-18.35,-81.11
16808.0,0.312,-0.9516,0.0,7.5238,-7.5431,24.3901,277.67,-18.32,-81.14
16822.0,0.3198,-0.9516,0.0039,7.5933,-7.8214,23.9032,277.75,-18.3,-81.16
16836.0,0.312,-0.9555,0.0078,7.0368,-6.8474,23.6945,277.84,-18.28,-81.19
16850.0,0.312,-0.9477,0.0117,6.8281,-6.7083,23.764,277.92,-18.25,-81.21
16864.0,0.3159,-0.9516,0.0117,6.7585,-6.4301,23.764,278.0,-18.23,-81.24
16878.0,0.3198,-0.9555,0.0078,6.4803,-6.4301,24.5988,278.08,-18.2,-81.26
16892.0,0.3237,-0.9516,0.0,6.2716,-5.9431,24.8771,278.17,-18.18,-81.29
16906.0,0.3276,-0.9477,0.0,6.689,-6.0127,23.9727,278.25,-18.16,-81.31
16920.0,0.3159,-0.9555,0.0078,6.8281,-5.9431,23.3466,278.33,-18.14,-81.34
16934.0,0.312,-0.9633,0.0039,7.1064,-6.0127,22.8597,278.41,-18.11,-81.36
16948.0,0.312,-0.9594,0.0117,7.9411,-6.3605,22.7901,278.49,-18.09,-81.38
16962.0,0.3198,-0.9633,0.0195,8.2194,-6.0822,23.0684,278.58,-18.06,-81.41
16976.0,0.3276,-0.9633,0.0195,7.2455,-4.3431,23.8336,278.66,-18.04,-81.43
16990.0,0.3354,-0.9555,0.0117,6.5498,-4.2735,24.3206,278.74,-18.02,-81.45
17004.0,0.3354,-0.9555,0.0078,5.9933,-4.8996,24.5293,278.82,-18.01,-81.47
17018.0,0.3198,-0.9555,0.0,6.0629,-7.3344,24.8075,278.9,-17.98,-81.5
17032.0,0.3198,-0.9555,0.0078,6.5498,-8.2387,24.5988,278.98,-17.96,-81.52
17046.0,0.312,-0.9594,0.0195,7.3151,-7.1257,24.3901,279.06,-17.94,-81.54
17060.0,0.3159,-0.9555,0.0156,7.5238,-6.6387,24.5988,279.14,-17.91,-81.56
17074.0,0.3276,-0.9477,0.0156,7.5933,-6.0822,24.7379,279.22,-17.89,-81.58
17088.0,0.3276,-0.9477,0.0156,7.1759,-5.317,23.764,279.31,-17.87,-81.6
17102.0,0.3276,-0.9477,0.0078,7.0368,-5.5953,23.138,279.39,-17.85,-81.63
17116.0,0.3198,-0.9594,0.0117,6.8977,-5.7344,22.8597,279.47,-17.83,-81.65
17130.0,0.3159,-0.9555,0.0078,7.0368,-5.7344,23.3466,279.55,-17.81,-81.67
17144.0,0.3198,-0.9516,0.0,6.9672,-5.7344,23.9032,279.63,-17.79,-81.69
17158.0,0.3159,-0.9516,0.0,7.2455,-5.7344,24.3901,279.7,-17.77,-81.72
17172.0,0.3198,-0.9516,0.0039,7.5238,-6.2214,24.0423,279.78,-17.75,-81.74
17186.0,0.3237,-0.9555,0.0078,7.8716,-7.0561,23.3466,279.86,-17.73,-81.76
17200.0,0.3237,-0.9633,0.0195,7.6629,-6.4996,23.6249,279.94,-17.7,-81.78
17214.0,0.312,-0.9516,0.0156,7.6629,-5.4561,23.9727,280.02,-17.68,-81.8
17228.0,0.312,-0.9555,0.0195,7.9411,-4.4822,23.9032,280.1,-17.66,-81.82
17242.0,0.3159,-0.9555,0.0195,8.0107,-4.0648,23.5553,280.18,-17.64,-81.84
17256.0,0.3198,-0.9477,0.0117,7.9411,-3.0214,23.0684,280.26,-17.62,-81.86
17270.0,0.3276,-0.9555,0.0234,7.6629,-2.3257,22.8597,280.34,-17.6,-81.88
17284.0,0.3276,-0.9633,0.0273,7.1064,-1.8387,23.6945,280.42,-17.58,-81.89
17298.0,0.3237,-0.9594,0.0117,6.1325,-1.9779,23.9032,280.49,-17.56,-81.91
17312.0,0.3276,-0.9594,0.0117,6.0629,-2.9518,24.0423,280.57,-17.54,-81.94
17326.0,0.3276,-0.9633,0.0078,6.202,-5.0387,25.0858,280.65,-17.52,-81.96
17340.0,0.3198,-0.9672,0.0,6.4803,-5.5257,25.6423,280.73,-17.5,-81.98
17354.0,0.312,-0.9555,0.0039,7.1759,-5.8735,25.2249,280.81,-17.48,-82.0
17368.0,0.3159,-0.9594,0.0156,8.5672,-7.0561,24.6684,280.88,-17.45,-82.02
17382.0,0.3198,-0.9594,0.0117,8.5672,-6.4301,24.5988,280.96,-17.43,-82.04
17396.0,0.3198,-0.9516,0.0078,8.6368,-4.204,24.5988,281.04,-17.41,-82.06
17410.0,0.3198,-0.9516,0.0156,8.289,-3.7866,24.251,281.12,-17.39,-82.08
17424.0,0.3276,-0.9516,0.0156,7.5933,-3.0909,24.6684,281.19,-17.38,-82.1
17438.0,0.3276,-0.9516,0.0039,7.1064,-2.4648,24.5293,281.27,-17.36,-82.12
17452.0,0.3198,-0.9555,0.0039,7.0368,-2.5344,24.6684,281.35,-17.34,-82.14
17466.0,0.3081,-0.9516,-0.0039,7.2455,-4.0648,25.5032,281.42,-17.32,-82.16
17480.0,0.312,-0.9477,0.0,7.5933,-5.5953,25.4336,281.5,-17.3,-82.19
17494.0,0.312,-0.9477,0.0117,7.9411,-6.8474,25.1553,281.58,-17.28,-82.2
17508.0,0.3198,-0.9516,0.0195,7.8716,-7.1257,25.2945,281.65,-17.26,-82.22
17522.0,0.3237,-0.9477,0.0117,7.4542,-5.3866,25.364,281.73,-17.24,-82.24
17536.0,0.3198,-0.9477,0.0039,6.4803,-1.0735,24.9466,281.81,-17.22,-82.26
17550.0,0.3237,-0.9594,0.0,5.8542,-0.5866,25.0162,281.88,-17.2,-82.28
17564.0,0.3159,-0.9594,-0.0078,5.3672,-1.1431,25.2249,281.96,-17.18,-82.31
17578.0,0.3198,-0.9594,-0.0078,5.5759,-4.1344,25.2249,282.03,-17.16,-82.33
17592.0,0.3081,-0.9516,-0.0078,5.8542,-5.317,25.0858,282.11,-17.14,-82.35
17606.0,0.3081,-0.9477,0.0,6.5498,-6.8474,24.3901,282.18,-17.12,-82.38
17620.0,0.312,-0.9477,0.0117,6.8977,-7.7518,23.9032,282.26,-17.1,-82.39
17634.0,0.312,-0.9516,0.0117,6.8977,-8.7953,23.9032,282.34,-17.08,-82.41
17648.0,0.312,-0.9633,0.0156,7.0368,-9.004,24.3206,282.41,-17.06,-82.43
17662.0,0.312,-0.9555,0.0195,7.1064,-8.5866,24.6684,282.49,-17.04,-82.45
17676.0,0.3159,-0.9594,0.0234,6.202,-6.0822,24.6684,282.56,-17.02,-82.46
17690.0,0.3081,-0.9594,0.0195,5.8542,-5.0387,24.6684,282.64,-17.0,-82.48
17704.0,0.312,-0.9594,0.0078,5.6455,-4.6214,23.9032,282.71,-16.98,-82.5
17718.0,0.3081,-0.9555,0.0195,5.7846,-4.8996,23.9727,282.79,-16.96,-82.51
17732.0,0.312,-0.9633,0.0117,6.202,-5.0387,24.251,282.86,-16.94,-82.53
17746.0,0.3159,-0.9633,0.0117,7.1759,-5.3866,24.6684,282.94,-16.92,-82.55
17760.0,0.3042,-0.9516,0.0156,7.5238,-6.0127,24.4597,283.01,-16.9,-82.57
17774.0,0.312,-0.9594,0.0117,7.7325,-7.9605,23.6249,283.09,-16.88,-82.58
17788.0,0.3198,-0.9672,0.0234,7.5238,-7.8909,24.251,283.16,-16.86,-82.6
17802.0,0.312,-0.9633,0.0156,7.0368,-6.9866,25.1553,283.24,-16.84,-82.62
17816.0,0.312,-0.9594,0.0078,7.1064,-6.2909,25.364,283.31,-16.82,-82.63
17830.0,0.3081,-0.9633,0.0078,7.3846,-6.2214,24.8075,283.39,-16.8,-82.65
17844.0,0.3081,-0.9555,0.0117,7.802,-6.4301,24.1814,283.46,-16.78,-82.67
17858.0,0.3198,-0.9438,0.0156,7.8716,-6.0822,23.8336,283.53,-16.76,-82.69
17872.0,0.3237,-0.9477,0.0195,7.5238,-5.317,23.4858,283.61,-16.75,-82.7
17886.0,0.3159,-0.9516,0.0117,6.8977,-4.8996,23.138,283.68,-16.73,-82.72
17900.0,0.3159,-0.9516,0.0078,6.9672,-5.7344,23.5553,283.75,-16.71,-82.74
17914.0,0.312,-0.9555,0.0039,7.1759,-7.5431,24.251,283.83,-16.7,-82.76
17928.0,0.3159,-0.9594,0.0117,7.5933,-8.1692,24.8771,283.9,-16.68,-82.77
17942.0,0.3237,-0.9594,0.0117,7.5238,-7.8909,25.2249,283.98,-16.66,-82.79
17956.0,0.312,-0.9516,0.0117,7.1759,-5.8735,24.8771,284.05,-16.64,-82.81
17970.0,0.312,-0.9555,0.0078,7.3846,-6.0127,23.764,284.12,-16.63,-82.82
17984.0,0.3198,-0.9594,0.0078,7.5933,-6.917,22.8597,284.19,-16.61,-82.84
17998.0,0.3159,-0.9633,0.0039,7.7325,-6.917,23.138,284.27,-16.59,-82.86
18012.0,0.3159,-0.9633,0.0117,7.7325,-6.917,23.3466,284.34,-16.58,-82.88
18026.0,0.3159,-0.9555,0.0156,7.7325,-6.4996,24.3901,284.41,-16.56,-82.89
18040.0,0.3198,-0.9477,0.0117,7.5933,-6.2214,24.5988,284.49,-16.54,-82.91
18054.0,0.3159,-0.9477,0.0156,7.5238,-6.2909,23.4858,284.56,-16.53,-82.92
18068.0,0.3159,-0.9516,0.0117,7.2455,-6.4996,22.9988,284.63,-16.51,-82.94
18082.0,0.3198,-0.9594,0.0156,6.9672,-6.9866,22.9988,284.7,-16.5,-82.95
18096.0,0.312,-0.9594,0.0156,6.689,-6.9866,24.251,284.77,-16.48,-82.97
18110.0,0.3081,-0.9555,0.0117,6.689,-6.7779,24.4597,284.85,-16.46,-82.99
18124.0,0.3081,-0.9516,0.0078,6.9672,-6.4301,24.1814,284.92,-16.44,-83.0
18138.0,0.3081,-0.9555,0.0117,7.1064,-6.3605,24.1119,284.99,-16.43,-83.02
18152.0,0.3042,-0.9516,0.0117,7.3846,-6.3605,24.3206,285.06,-16.41,-83.03
18166.0,0.3081,-0.9516,0.0117,7.3846,-6.1518,24.0423,285.13,-16.39,-83.05
18180.0,0.3198,-0.9516,0.0039,6.8281,-5.5257,23.6249,285.2,-16.38,-83.07
18194.0,0.3159,-0.9633,0.0078,6.4803,-5.0387,23.6945,285.27,-16.36,-83.08
18208.0,0.312,-0.9516,-0.0039,6.6194,-5.317,24.3206,285.34,-16.34,-83.1
18222.0,0.312,-0.9555,0.0,6.9672,-5.9431,24.3206,285.41,-16.33,-83.12
18236.0,0.3081,-0.9516,0.0,7.9411,-8.2387,23.4162,285.48,-16.31,-83.14
18255.0,0.3237,-0.9555,0.0195,7.7325,-8.4474,23.764,285.58,-16.29,-83.16
18269.0,0.3237,-0.9516,0.0234,7.2455,-7.4735,24.0423,285.65,-16.28,-83.17
18283.0,0.3315,-0.9555,0.0195,6.7585,-6.7779,23.8336,285.72,-16.27,-83.18
18297.0,0.3159,-0.9594,0.0117,6.689,-7.0561,23.6945,285.79,-16.26,-83.2
18311.0,0.3081,-0.9555,0.0078,7.1759,-7.4735,23.6249,285.86,-16.24,-83.22
18325.0,0.3042,-0.9633,0.0156,7.6629,-8.2387,24.0423,285.93,-16.22,-83.23
18339.0,0.3198,-0.9633,0.0273,7.5933,-7.6127,24.4597,286.01,-16.21,-83.24
18353.0,0.3237,-0.9594,0.0234,7.3151,-5.0387,25.0162,286.08,-16.19,-83.25
18367.0,0.3198,-0.9555,0.0195,7.3151,-4.204,24.7379,286.14,-16.18,-83.26
18381.0,0.3198,-0.9594,0.0078,7.5238,-3.6474,24.3901,286.21,-16.16,-83.28
18395.0,0.3042,-0.9555,0.0117,8.3585,-4.1344,23.5553,286.28,-16.15,-83.29
18409.0,0.3042,-0.9633,0.0117,8.6368,-4.204,23.4858,286.35,-16.13,-83.31
18423.0,0.3081,-0.9672,0.0195,8.8455,-3.9953,24.0423,286.42,-16.11,-83.32
18437.0,0.3081,-0.9594,0.0156,8.3585,-3.5779,24.8771,286.49,-16.1,-83.33
18451.0,0.3276,-0.9555,0.0195,7.4542,-3.6474,25.0858,286.56,-16.08,-83.35
18465.0,0.3198,-0.9594,0.0156,5.9238,-4.2735,24.7379,286.63,-16.07,-83.36
18479.0,0.312,-0.9594,0.0195,6.1325,-5.4561,24.251,286.69,-16.06,-83.37
18493.0,0.3081,-0.9672,0.0195,6.5498,-6.3605,24.1119,286.76,-16.04,-83.39
18507.0,0.3003,-0.9633,0.0156,7.7325,-6.2909,24.1814,286.83,-16.02,-83.4
18521.0,0.3081,-0.9594,0.0156,8.0803,-5.9431,24.6684,286.9,-16.01,-83.41
18535.0,0.3081,-0.9516,0.0195,8.3585,-6.3605,24.5988,286.97,-15.99,-83.42
18549.0,0.3159,-0.9594,0.0195,8.5672,-7.1953,24.5293,287.04,-15.98,-83.44
18563.0,0.3159,-0.9555,0.0273,8.9151,-7.8214,25.1553,287.11,-15.96,-83.45
18577.0,0.3042,-0.9477,0.0195,8.8455,-7.1953,25.2945,287.17,-15.95,-83.46
18591.0,0.3081,-0.9477,0.0195,8.5672,-6.2214,25.0858,287.24,-15.93,-83.47
18605.0,0.3081,-0.9516,0.0156,7.802,-4.2735,24.1814,287.31,-15.92,-83.48
18619.0,0.3081,-0.9633,0.0117,7.802,-4.5518,23.9727,287.38,-15.9,-83.5
18633.0,0.312,-0.9633,0.0156,8.7759,-6.2214,24.7379,287.44,-15.89,-83.51
18647.0,0.3042,-0.9672,0.0156,9.1933,-6.917,25.2249,287.51,-15.87,-83.52
18661.0,0.3081,-0.9594,0.0195,9.5411,-6.9866,25.364,287.58,-15.86,-83.53
18675.0,0.3159,-0.9477,0.0156,9.6107,-4.6909,25.1553,287.65,-15.84,-83.54
18689.0,0.3159,-0.9438,0.0156,9.0542,-3.4387,24.5988,287.71,-15.83,-83.56
18703.0,0.3198,-0.9477,0.0156,8.2194,-3.3692,23.4162,287.78,-15.82,-83.57
18717.0,0.312,-0.9516,0.0156,8.0803,-4.2735,23.138,287.84,-15.81,-83.58
18731.0,0.3198,-0.9516,0.0234,7.8716,-5.6648,23.5553,287.91,-15.8,-83.59
18745.0,0.3042,-0.9555,0.0117,8.3585,-6.7083,25.0162,287.98,-15.78,-83.6
18759.0,0.312,-0.9594,0.0195,8.7759,-6.4996,25.5032,288.04,-15.77,-83.61
18773.0,0.3315,-0.9477,0.0234,8.4281,-4.9692,26.5466,288.11,-15.76,-83.62
18787.0,0.3276,-0.9477,0.0195,7.6629,-3.9953,26.8249,288.18,-15.75,-83.64
18801.0,0.3081,-0.9477,0.0117,7.1759,-3.8561,26.3379,288.24,-15.74,-83.65
18815.0,0.3042,-0.9516,0.0117,7.6629,-5.9431,24.4597,288.31,-15.73,-83.66
18829.0,0.3003,-0.9555,0.0234,8.4281,-6.4301,23.764,288.37,-15.71,-83.67
18843.0,0.3042,-0.9672,0.0195,9.5411,-6.7083,23.9727,288.44,-15.7,-83.68
18857.0,0.3159,-0.9633,0.0195,9.8194,-7.0561,24.3901,288.51,-15.68,-83.69
18871.0,0.3276,-0.9516,0.0351,9.889,-6.5692,25.0162,288.57,-15.67,-83.7
18885.0,0.3159,-0.9516,0.0273,9.6107,-4.8996,24.8075,288.64,-15.66,-83.71
18899.0,0.312,-0.9633,0.0312,9.6803,-4.5518,24.4597,288.7,-15.65,-83.71
18913.0,0.3081,-0.9555,0.0312,10.2368,-4.8996,23.764,288.77,-15.64,-83.72
18927.0,0.312,-0.9555,0.0624,10.0977,-5.0387,23.4858,288.83,-15.62,-83.72
18941.0,0.312,-0.9594,0.0585,8.9846,-3.9953,24.1119,288.9,-15.61,-83.72
18955.0,0.312,-0.9594,0.0546,7.802,-1.6301,25.7119,288.96,-15.6,-83.72
18969.0,0.3042,-0.9633,0.039,7.802,-1.2822,25.7814,289.03,-15.58,-83.73
18983.0,0.2925,-0.9594,0.0312,8.9846,-3.0909,25.1553,289.09,-15.57,-83.73
18997.0,0.2964,-0.9672,0.039,9.6803,-4.1344,24.4597,289.16,-15.55,-83.74
19011.0,0.3003,-0.9672,0.0507,10.3064,-4.0648,24.251,289.22,-15.53,-83.74
19025.0,0.2964,-0.9672,0.0468,10.0281,-2.6735,24.6684,289.29,-15.52,-83.74
19039.0,0.3003,-0.9633,0.0507,10.0281,-2.3953,24.7379,289.35,-15.5,-83.74
19053.0,0.3042,-0.9594,0.0507,9.6107,-2.5344,24.8075,289.41,-15.49,-83.74
19067.0,0.2925,-0.9555,0.0546,9.3325,-2.5344,23.9727,289.48,-15.47,-83.74
19081.0,0.2964,-0.9633,0.0585,9.1933,-3.2301,23.138,289.54,-15.45,-83.74
19095.0,0.3042,-0.9672,0.0624,10.4455,-4.3431,23.4162,289.6,-15.44,-83.74
19109.0,0.2964,-0.9672,0.0702,11.2107,-3.6474,24.251,289.67,-15.42,-83.74
19123.0,0.2886,-0.9594,0.0702,11.3498,-2.0474,25.364,289.73,-15.4,-83.73
19137.0,0.2886,-0.9594,0.0624,11.2107,-2.117,24.7379,289.79,-15.38,-83.73
19151.0,0.2886,-0.9672,0.0546,11.489,-2.8822,23.764,289.86,-15.37,-83.73
19165.0,0.2808,-0.9594,0.0546,12.602,-6.917,21.8858,289.92,-15.35,-83.73
19179.0,0.2925,-0.9594,0.0546,13.4368,-9.004,20.9814,289.99,-15.33,-83.73
19193.0,0.3081,-0.9555,0.0663,14.9672,-9.6996,20.0771,290.05,-15.32,-83.73
19207.0,0.3159,-0.9633,0.0858,15.1759,-8.7257,19.7293,290.11,-15.31,-83.72
19221.0,0.3042,-0.9789,0.0936,15.1759,-7.4735,20.564,290.18,-15.3,-83.7
19235.0,0.2925,-0.9633,0.0897,15.1759,-8.1692,21.538,290.24,-15.28,-83.69
19249.0,0.273,-0.9594,0.1014,14.689,-9.8387,21.3293,290.31,-15.26,-83.68
19263.0,0.2964,-0.9555,0.1131,13.3672,-12.0648,19.938,290.37,-15.25,-83.66
19277.0,0.2925,-0.9633,0.117,12.9498,-10.9518,20.2858,290.44,-15.23,-83.64
19291.0,0.3159,-0.9789,0.1404,13.0194,-9.2822,22.5119,290.5,-15.22,-83.61
19305.0,0.312,-0.9867,0.1287,13.9933,-3.2996,24.6684,290.56,-15.2,-83.59
19319.0,0.3276,-0.9711,0.0975,14.9672,-1.5605,26.8249,290.63,-15.2,-83.57
19333.0,0.3237,-0.9711,0.0819,16.1498,0.1786,29.538,290.69,-15.19,-83.57
19347.0,0.3081,-0.9672,0.0507,17.1238,-1.2822,29.538,290.75,-15.18,-83.57
19361.0,0.312,-0.975,0.0585,18.4455,-3.3692,28.564,290.81,-15.16,-83.57
19375.0,0.312,-0.975,0.0585,19.6977,-4.9692,28.9119,290.87,-15.15,-83.56
19389.0,0.3237,-0.9633,0.078,19.489,-5.804,29.9553,290.93,-15.14,-83.56
19403.0,0.3276,-0.9594,0.078,18.6542,-6.8474,31.0684,291.0,-15.14,-83.55
19417.0,0.3081,-0.9477,0.0663,18.5846,-6.5692,30.7901,291.06,-15.13,-83.55
19431.0,0.3042,-0.9555,0.0741,18.7933,-6.1518,30.0945,291.12,-15.12,-83.54
19445.0,0.2964,-0.9555,0.0858,17.6803,-3.1605,30.9988,291.18,-15.1,-83.53
19459.0,0.2925,-0.9438,0.0936,16.4977,-1.1431,31.6249,291.24,-15.09,-83.52
19473.0,0.2925,-0.9399,0.0741,14.6194,2.1265,30.4423,291.3,-15.07,-83.51
19487.0,0.2886,-0.9438,0.0624,14.7585,1.9873,28.7032,291.36,-15.06,-83.51
19501.0,0.2808,-0.9438,0.0585,15.5933,1.4308,25.9206,291.42,-15.04,-83.51
19515.0,0.3003,-0.9594,0.078,17.1238,0.0395,26.1988,291.48,-15.03,-83.5
19529.0,0.2964,-0.9555,0.0897,16.7064,0.9439,27.6597,291.54,-15.01,-83.49
19543.0,0.2808,-0.9399,0.0819,15.802,1.1526,28.9814,291.6,-15.0,-83.48
19557.0,0.2847,-0.9321,0.078,15.802,-0.517,27.7293,291.66,-14.98,-83.47
19571.0,0.2886,-0.936,0.0975,15.6629,-2.2561,25.851,291.72,-14.97,-83.46
19585.0,0.2964,-0.936,0.0936,14.6194,-2.8127,25.9206,291.78,-14.96,-83.45
19599.0,0.2847,-0.9282,0.1014,13.5759,-3.9953,26.2684,291.84,-14.95,-83.43
19613.0,0.2808,-0.9243,0.1131,12.1151,-8.2387,24.5988,291.9,-14.93,-83.42
19627.0,0.3003,-0.936,0.117,11.9064,-8.517,23.0684,291.96,-14.92,-83.4
19641.0,0.312,-0.9321,0.1092,11.0716,-3.8561,23.2771,292.02,-14.92,-83.38
19655.0,0.2925,-0.9321,0.0819,8.5672,-3.3692,22.0945,292.08,-14.91,-83.38
19669.0,0.2652,-0.9282,0.0507,7.6629,-4.1344,20.0771,292.14,-14.89,-83.38
19683.0,0.2574,-0.9282,0.0429,7.4542,-9.1431,14.164,292.2,-14.88,-83.39
19697.0,0.2418,-0.9282,0.0312,7.2455,-12.4822,10.7553,292.25,-14.86,-83.4
19711.0,0.2535,-0.8931,0.0468,7.1064,-20.204,3.3814,292.32,-14.84,-83.4
19725.0,0.2808,-0.9087,0.0819,2.2368,-24.0301,0.0423,292.38,-14.84,-83.4
19739.0,0.2418,-0.936,0.078,-1.7284,-27.0909,-2.2534,292.44,-14.82,-83.4
19753.0,0.2808,-0.9516,0.1131,-6.4589,-44.4822,-7.8186,292.51,-14.81,-83.39
19767.0,0.4017,-0.9594,0.1872,-9.1023,-51.2996,-6.0794,292.58,-14.84,-83.35
19781.0,0.4524,-0.9594,0.2028,-11.6762,-47.7518,3.5901,292.65,-14.89,-83.31
19795.0,0.4524,-0.9438,0.1638,-19.398,-37.804,10.1293,292.71,-14.93,-83.29
19809.0,0.3978,-0.9516,0.117,-21.2067,-25.1431,16.3901,292.78,-14.95,-83.28
19823.0,0.3432,-0.9555,0.0546,-16.7545,-6.7779,23.0684,292.83,-14.96,-83.29
19837.0,0.3354,-0.9399,-0.0078,-11.4675,-4.204,22.651,292.89,-14.96,-83.32
19851.0,0.3549,-0.9282,0.0039,-6.3197,2.196,21.051,292.95,-14.97,-83.34
19865.0,0.3276,-0.9243,-0.0039,-0.5458,6.4395,19.3119,293.0,-14.97,-83.36
19879.0,0.3393,-0.9204,-0.0039,-0.198,6.8569,15.6945,293.05,-14.98,-83.38
19893.0,0.3783,-0.9321,0.0078,-0.7545,4.4917,10.8249,293.11,-14.99,-83.39
19907.0,0.3822,-0.936,-0.0078,0.3585,4.8395,12.2858,293.16,-15.01,-83.42
19921.0,0.3978,-0.936,-0.0039,4.3933,3.5178,17.364,293.21,-15.03,-83.43
19935.0,0.3393,-0.9243,-0.0429,5.5759,0.7352,19.3814,293.27,-15.03,-83.46
19949.0,0.3588,-0.9126,-0.0429,5.7846,-6.1518,20.2162,293.32,-15.04,-83.49
19963.0,0.3666,-0.9204,-0.0468,4.602,-14.5692,22.651,293.38,-15.06,-83.52
19977.0,0.3744,-0.9243,-0.0195,5.6455,-16.4474,22.9293,293.44,-15.07,-83.55
19991.0,0.4134,-0.9282,0.0156,6.202,-14.3605,24.3901,293.5,-15.09,-83.56
20005.0,0.4095,-0.9243,0.0234,5.9238,-12.1344,25.0858,293.55,-15.12,-83.57
20019.0,0.3744,-0.9165,0.0078,5.5064,-11.0214,25.7814,293.61,-15.13,-83.59
20033.0,0.3393,-0.9087,-0.0273,5.8542,-14.7779,22.7901,293.67,-15.14,-83.61
20047.0,0.3315,-0.9126,-0.0195,7.1064,-18.5344,21.1206,293.73,-15.14,-83.64
20061.0,0.3666,-0.9243,0.0351,8.9846,-24.9344,19.0336,293.79,-15.15,-83.65
20075.0,0.39,-0.9204,0.0546,8.8455,-24.7953,20.2162,293.85,-15.17,-83.65
20089.0,0.4329,-0.9282,0.0624,8.4281,-21.804,22.5814,293.91,-15.21,-83.65
20103.0,0.3861,-0.9243,0.0351,6.6194,-10.604,28.9814,293.97,-15.22,-83.66
20117.0,0.3666,-0.9204,0.0234,5.2281,-6.9866,30.7901,294.02,-15.23,-83.67
20131.0,0.3393,-0.9165,0.0156,0.0803,-3.3692,30.9988,294.08,-15.24,-83.68
20145.0,0.3354,-0.9165,0.0078,-2.6328,-3.8561,29.051,294.13,-15.24,-83.7
20159.0,0.3744,-0.9555,0.0351,-4.0936,-4.4822,27.6597,294.19,-15.25,-83.71
20173.0,0.39,-0.9516,0.0507,-3.9545,-4.204,29.6771,294.25,-15.26,-83.72
20187.0,0.3549,-0.9399,0.0429,-3.3284,-2.604,32.251,294.3,-15.27,-83.73
20201.0,0.3354,-0.9243,0.0312,-1.798,-4.1344,33.1553,294.36,-15.27,-83.74
20215.0,0.3081,-0.9438,0.0234,-0.6154,-7.0561,32.0423,294.41,-15.26,-83.75
20229.0,0.3159,-0.9516,0.0351,1.1238,-9.6996,30.5814,294.47,-15.25,-83.76
20243.0,0.3432,-0.9516,0.0624,3.4194,-10.7431,30.0945,294.53,-15.25,-83.76
20262.0,0.3432,-0.9282,0.0468,2.8629,-7.0561,27.8684,294.6,-15.26,-83.77
20276.0,0.3159,-0.936,0.0234,2.9325,-6.4301,25.0858,294.66,-15.26,-83.78
20290.0,0.3432,-0.9516,0.0585,2.6542,-8.1692,19.7988,294.71,-15.26,-83.78
20304.0,0.3666,-0.9789,0.078,-0.6849,-7.404,20.6336,294.77,-15.27,-83.78
20318.0,0.3588,-0.975,0.0741,-1.1023,-6.6387,22.164,294.82,-15.27,-83.78
20332.0,0.351,-0.9555,0.0507,0.0107,-6.2909,24.4597,294.88,-15.28,-83.79
20346.0,0.3432,-0.9672,0.039,0.4281,-6.2214,24.251,294.93,-15.28,-83.79
20360.0,0.3471,-0.9789,0.0429,1.1238,-9.0735,25.1553,294.99,-15.28,-83.8
20374.0,0.3315,-0.9711,0.0351,4.602,-11.4387,26.1293,295.04,-15.28,-83.81
20388.0,0.3276,-0.9711,0.039,6.6194,-12.9692,26.6858,295.1,-15.28,-83.82
20402.0,0.312,-0.9633,0.039,9.8194,-13.5953,25.9206,295.16,-15.27,-83.83
20416.0,0.3315,-0.9633,0.0702,9.889,-13.1779,24.6684,295.21,-15.27,-83.82
20430.0,0.3159,-0.9672,0.0624,8.7064,-8.7953,23.5553,295.27,-15.26,-83.82
20444.0,0.3237,-0.9672,0.0663,8.3585,-7.3344,23.0684,295.32,-15.26,-83.82
20458.0,0.3315,-0.9633,0.0702,8.5672,-5.804,22.7901,295.37,-15.26,-83.82
20472.0,0.3198,-0.9516,0.0312,9.0542,-2.6735,21.2597,295.43,-15.26,-83.83
20486.0,0.3315,-0.9516,0.039,9.1238,-2.6735,20.7032,295.48,-15.26,-83.84
20500.0,0.3549,-0.9633,0.0546,9.3325,-2.1866,23.6249,295.53,-15.26,-83.84
20514.0,0.3627,-0.9555,0.0507,9.1933,-1.8387,26.6858,295.58,-15.27,-83.84
20528.0,0.3393,-0.9321,0.0039,8.7759,-1.004,29.4684,295.64,-15.27,-83.86
20542.0,0.3276,-0.9399,-0.0039,9.1238,-3.2301,29.8858,295.69,-15.27,-83.87
20556.0,0.3237,-0.9321,0.0039,9.402,-5.317,29.3293,295.74,-15.27,-83.89
20570.0,0.3276,-0.9399,0.0117,8.5672,-6.8474,28.7032,295.8,-15.27,-83.9
20584.0,0.3276,-0.9438,0.0156,8.5672,-7.2648,28.564,295.85,-15.27,-83.92
20598.0,0.351,-0.9477,0.0195,8.7759,-6.7779,28.8423,295.9,-15.27,-83.93
20612.0,0.3432,-0.9399,0.0078,10.1672,-4.8301,28.564,295.95,-15.28,-83.94
20626.0,0.3393,-0.9321,0.0078,10.5151,-5.5257,27.1032,296.01,-15.28,-83.96
20640.0,0.3354,-0.936,0.0117,10.2368,-7.8214,24.8075,296.06,-15.28,-83.97
20654.0,0.3393,-0.9399,0.0273,9.5411,-7.7518,24.5988,296.11,-15.29,-83.98
20668.0,0.3471,-0.9438,0.0195,8.7064,-6.7779,24.5988,296.16,-15.29,-83.99
20682.0,0.3471,-0.9477,0.0195,7.3846,-6.8474,25.7119,296.22,-15.3,-84.0
20696.0,0.3549,-0.9399,0.0156,7.3151,-7.404,26.5466,296.27,-15.3,-84.02
20710.0,0.3471,-0.936,0.0156,7.8716,-6.917,27.1032,296.32,-15.31,-84.03
20724.0,0.3432,-0.9477,0.0234,8.1498,-7.6127,26.8945,296.37,-15.31,-84.04
20738.0,0.3354,-0.9399,0.0273,8.4281,-8.517,26.964,296.43,-15.32,-84.05
20752.0,0.3354,-0.9477,0.0312,9.0542,-8.6561,26.4075,296.48,-15.32,-84.06
20766.0,0.3354,-0.9438,0.0351,9.7498,-8.3779,25.7814,296.53,-15.32,-84.06
20780.0,0.3471,-0.9477,0.0273,9.402,-6.7779,25.2945,296.58,-15.32,-84.07
20794.0,0.3549,-0.9321,0.0195,8.5672,-5.0387,25.364,296.64,-15.33,-84.08
20808.0,0.351,-0.9321,0.0078,7.3846,-3.9257,24.6684,296.69,-15.34,-84.1
20822.0,0.3354,-0.9477,0.0117,6.689,-6.7779,22.164,296.74,-15.34,-84.11
20836.0,0.3393,-0.9555,0.0234,7.3151,-8.7953,21.8162,296.79,-15.35,-84.12
20850.0,0.3393,-0.9516,0.0312,9.1933,-10.117,23.2771,296.84,-15.35,-84.13
20864.0,0.3393,-0.9477,0.0312,9.9585,-9.9779,24.0423,296.89,-15.35,-84.14
20878.0,0.3393,-0.9438,0.0351,10.2368,-9.6996,24.5293,296.95,-15.36,-84.15
20892.0,0.3393,-0.9399,0.0351,9.889,-8.6561,25.364,297.0,-15.36,-84.15
20906.0,0.3315,-0.9399,0.0351,9.3325,-7.5431,25.1553,297.05,-15.36,-84.16
20920.0,0.3159,-0.9555,0.0273,7.6629,-6.0822,23.9032,297.1,-15.36,-84.17
20934.0,0.3237,-0.9594,0.0273,7.6629,-6.0127,23.4162,297.15,-15.36,-84.18
20948.0,0.3315,-0.9555,0.0312,7.6629,-6.0127,23.6249,297.2,-15.36,-84.19
20962.0,0.3276,-0.9477,0.0273,7.1759,-6.2214,24.6684,297.25,-15.36,-84.19
20976.0,0.3276,-0.9438,0.0273,6.5498,-6.4301,25.0162,297.3,-15.36,-84.2
20990.0,0.3198,-0.9555,0.0273,6.1325,-6.7779,24.9466,297.35,-15.35,-84.21
21004.0,0.3081,-0.9516,0.0195,6.5498,-6.4996,24.9466,297.4,-15.35,-84.23
21018.0,0.3081,-0.9594,0.0195,7.1759,-6.4301,24.8771,297.45,-15.34,-84.24
21032.0,0.3159,-0.9594,0.0234,8.6368,-8.1692,25.6423,297.5,-15.34,-84.25
21046.0,0.3159,-0.9516,0.0273,8.9846,-8.8648,26.5466,297.55,-15.33,-84.26
21060.0,0.3159,-0.9516,0.0273,8.2194,-8.6561,27.0336,297.61,-15.33,-84.27
21074.0,0.3198,-0.9555,0.0234,7.9411,-7.7518,26.4771,297.66,-15.33,-84.28
21088.0,0.3159,-0.9594,0.0234,7.6629,-7.3344,25.851,297.71,-15.32,-84.29
21102.0,0.3159,-0.9594,0.0234,7.802,-8.1692,25.851,297.76,-15.32,-84.3
21116.0,0.3081,-0.9555,0.0273,8.0803,-8.5866,26.1988,297.81,-15.31,-84.3
21130.0,0.312,-0.9516,0.0351,8.8455,-8.0301,25.7814,297.86,-15.31,-84.31
21144.0,0.3315,-0.9633,0.0507,8.3585,-5.8735,25.4336,297.91,-15.31,-84.31
21158.0,0.3237,-0.9711,0.0624,6.9672,-2.4648,27.451,297.95,-15.31,-84.31
21172.0,0.3237,-0.9555,0.0351,2.5846,4.0743,29.3293,298.0,-15.3,-84.32
21186.0,0.3198,-0.9477,0.0156,0.0107,6.5786,30.5814,298.05,-15.3,-84.33
21200.0,0.3042,-0.9438,0.0117,-2.1458,3.7265,29.6771,298.09,-15.29,-84.35
21214.0,0.3159,-0.9594,0.0078,-1.4502,-1.1431,29.051,298.14,-15.29,-84.36
21228.0,0.3237,-0.9594,0.0234,0.289,-4.8996,30.0945,298.19,-15.29,-84.37
21242.0,0.3159,-0.9555,0.0156,5.4368,-6.8474,30.7206,298.24,-15.28,-84.39
21256.0,0.3159,-0.9438,0.0078,8.2194,-7.0561,30.2336,298.29,-15.28,-84.4
21270.0,0.3159,-0.9399,0.0273,10.3759,-7.2648,27.3814,298.34,-15.28,-84.41
21284.0,0.3198,-0.9438,0.0312,9.6107,-5.5257,25.6423,298.39,-15.28,-84.42
21298.0,0.312,-0.9594,0.0351,8.8455,-4.2735,23.4162,298.43,-15.27,-84.42
21312.0,0.3276,-0.9594,0.039,7.3151,-4.0648,23.8336,298.48,-15.27,-84.43
21326.0,0.3081,-0.9555,0.0234,7.0368,-3.7866,24.8075,298.53,-15.27,-84.44
21340.0,0.2925,-0.9672,0.0156,7.4542,-5.7344,25.9206,298.58,-15.26,-84.45
21354.0,0.2964,-0.9672,0.0156,8.0107,-5.6648,26.6162,298.62,-15.25,-84.46
21368.0,0.3042,-0.9594,0.0234,8.8455,-4.8996,28.8423,298.67,-15.24,-84.47
21382.0,0.312,-0.9477,0.0273,8.2194,-3.0909,30.2336,298.72,-15.23,-84.48
21396.0,0.3783,-0.9048,0.1053,7.3846,-3.0909,30.9293,298.77,-15.26,-84.46
21410.0,0.4524,-0.8892,0.1794,3.1411,2.6134,32.5988,298.81,-15.31,-84.41
21424.0,0.4953,-0.858,0.3198,-1.1719,7.6917,34.338,298.83,-15.38,-84.3
21438.0,0.7332,-0.858,0.2847,-5.4154,14.2308,43.2423,298.86,-15.49,-84.23
21452.0,0.8424,-0.8073,0.2652,-3.9545,26.4047,44.9814,298.88,-15.61,-84.17
21466.0,0.8853,-0.6903,0.2769,0.6368,30.8569,40.9466,298.9,-15.74,-84.11
21480.0,0.8853,-0.6474,0.3354,8.7064,25.083,11.6597,298.91,-15.88,-84.04
21494.0,0.9477,-0.6123,0.2886,9.2629,18.3352,-10.6707,298.92,-16.03,-83.98
21508.0,1.0179,-0.5928,0.2496,11.0716,10.9613,-58.5316,298.94,-16.19,-83.93
21522.0,1.0764,-0.5967,0.3081,20.8803,10.3352,-77.5229,298.95,-16.36,-83.87
21536.0,1.1271,-0.6357,0.273,22.3411,21.8134,-91.436,298.97,-16.53,-83.81
21550.0,1.1388,-0.6435,0.2262,24.0803,48.9439,-109.5229,298.97,-16.7,-83.77
21564.0,1.2324,-0.6084,0.273,26.4455,56.7352,-114.5316,298.98,-16.88,-83.71
21578.0,1.2948,-0.6201,0.3315,27.4194,65.7786,-119.6794,298.98,-17.06,-83.65
21592.0,1.3572,-0.6513,0.3315,27.8368,67.9352,-123.1577,298.97,-17.24,-83.59
21606.0,1.3767,-0.7059,0.3159,31.5238,67.2395,-128.5838,298.97,-17.42,-83.54
21620.0,1.4079,-0.78,0.4017,45.6455,68.7004,-138.949,298.97,-17.6,-83.46
21634.0,1.4664,-0.7527,0.4251,47.0368,75.4482,-143.5403,298.96,-17.78,-83.39
21648.0,1.5366,-0.7098,0.4524,39.9411,98.5439,-159.8881,298.95,-17.96,-83.32
21662.0,1.5756,-0.7956,0.3432,16.4977,107.5873,-171.7142,298.94,-18.15,-83.26
21676.0,1.638,-0.8346,0.3783,7.802,115.4482,-182.9142,298.92,-18.34,-83.2
21690.0,1.7394,-0.8073,0.3471,-14.5284,152.8047,-187.9925,298.9,-18.54,-83.16
21704.0,1.7043,-0.7527,0.3237,-26.1458,169.2917,-182.8447,298.87,-18.73,-83.11
21718.0,1.7628,-0.7761,0.273,-36.3719,180.9786,-194.4621,298.84,-18.92,-83.08
21732.0,1.8213,-0.8346,0.2652,-38.3197,179.796,-197.8012,298.82,-19.12,-83.04
21746.0,1.8408,-0.8424,0.2301,-30.5284,178.196,-193.9055,298.79,-19.31,-83.01
21760.0,1.7862,-0.8697,0.1755,-14.3893,183.97,-185.9751,298.77,-19.5,-82.98
21774.0,1.7199,-0.8541,0.117,-6.1806,185.2917,-181.7316,298.74,-19.69,-82.96
21788.0,1.5639,-0.897,0.1092,2.6542,173.8134,-183.8186,298.73,-19.87,-82.93
21802.0,1.5483,-0.9048,0.1404,15.5238,164.9091,-186.8794,298.71,-20.06,-82.9
21816.0,1.5522,-0.8775,0.2184,20.0455,160.8047,-188.6881,298.69,-20.24,-82.86
21830.0,1.5717,-0.897,0.2145,28.1846,169.7786,-194.1838,298.67,-20.43,-82.81
21844.0,1.5405,-0.8073,0.234,33.4716,176.1091,-195.0186,298.65,-20.62,-82.76
21858.0,1.4586,-0.7605,0.2418,38.5498,185.7091,-201.9055,298.62,-20.81,-82.7
21872.0,1.4001,-0.7488,0.2067,42.7933,183.2743,-211.2968,298.59,-21.0,-82.65
21886.0,1.4313,-0.6084,0.3276,45.089,177.1526,-219.6447,298.56,-21.2,-82.57
21900.0,1.6263,-0.5109,0.4212,41.1933,186.9613,-217.7664,298.52,-21.4,-82.49
21914.0,1.4235,-0.3822,0.4251,37.9238,184.7352,-217.6968,298.47,-21.59,-82.41
21928.0,1.3104,-0.3471,0.3939,38.9672,187.796,-218.5316,298.42,-21.79,-82.32
21942.0,1.2987,-0.2613,0.4134,45.7151,182.3004,-218.6707,298.38,-21.98,-82.22
21956.0,1.2363,-0.2418,0.4875,51.9064,171.5873,-218.2534,298.33,-22.16,-82.12
21970.0,1.2402,-0.2457,0.5109,55.7325,157.3265,-208.5838,298.28,-22.34,-82.01
21984.0,1.2324,-0.2691,0.5967,57.889,153.083,-203.2968,298.23,-22.51,-81.9
21998.0,1.1856,-0.3432,0.5187,69.0194,145.7786,-196.549,298.18,-22.69,-81.78
22012.0,1.1271,-0.3198,0.5382,80.2194,134.2308,-198.9142,298.14,-22.86,-81.66
22026.0,1.0842,-0.3315,0.5265,88.4977,123.796,-202.1142,298.1,-23.03,-81.54
22040.0,0.8697,-0.2964,0.5421,103.2455,107.17,-219.9229,298.05,-23.19,-81.4
22054.0,0.8385,-0.2262,0.6162,108.8803,98.6134,-230.9142,298.0,-23.35,-81.25
22068.0,0.7878,-0.1326,0.6903,101.6455,87.3439,-250.4621,297.95,-23.49,-81.1
22082.0,0.7839,-0.1482,0.702,94.202,76.9091,-254.3577,297.9,-23.64,-80.96
22096.0,0.8541,-0.1599,0.7137,91.489,69.6047,-251.0186,297.85,-23.78,-80.81
22110.0,0.6552,-0.2418,0.6279,89.6803,72.8047,-227.8533,297.8,-23.92,-80.66
22124.0,0.5577,-0.2691,0.6669,87.9411,70.4395,-221.3838,297.75,-24.03,-80.5
22138.0,0.3978,-0.3432,0.8112,81.1933,69.2569,-205.8707,297.69,-24.1,-80.33
22152.0,0.3237,-0.312,0.8268,80.2194,71.483,-193.7664,297.63,-24.16,-80.17
22166.0,0.3237,-0.2691,0.8229,80.7064,75.0308,-181.5229,297.57,-24.21,-80.01
22180.0,0.1755,-0.2847,0.7293,81.889,88.6656,-162.8099,297.51,-24.24,-79.85
22194.0,0.0195,-0.3081,0.702,81.8194,93.8134,-166.9838,297.45,-24.25,-79.69
22208.0,-0.1326,-0.2496,0.6435,76.8107,97.4308,-184.9316,297.39,-24.24,-79.54
22222.0,-0.2418,-0.234,0.5187,75.9759,93.9526,-188.549,297.33,-24.21,-79.41
22236.0,0.1209,-0.0702,0.5421,79.1064,83.2395,-187.9229,297.27,-24.26,-79.26
22250.0,-0.4407,-0.2574,0.2223,82.5151,81.0134,-197.2447,297.24,-24.17,-79.18
22269.0,-0.4095,-0.2613,0.3315,82.2368,43.4482,-204.2707,297.2,-24.08,-79.05
22283.0,-0.4719,-0.4563,0.3627,76.9498,34.0569,-195.7142,297.18,-24.0,-78.96
22297.0,-0.4563,-0.4875,0.312,73.6803,38.1613,-151.4707,297.17,-23.9,-78.88
22311.0,-0.5148,-0.5187,0.2067,52.6716,48.6656,-128.9316,297.16,-23.77,-78.83
22325.0,-0.6006,-0.702,0.1326,40.289,48.0395,-106.4621,297.17,-23.64,-78.81
22339.0,-0.6981,-0.7878,-0.0429,20.602,46.9265,-38.9142,297.2,-23.49,-78.83
22353.0,-0.8736,-1.0296,-0.3315,14.7585,42.9613,-14.0794,297.23,-23.35,-78.89
22367.0,-0.8658,-1.131,-0.4875,15.5238,22.0917,26.1293,297.29,-23.21,-78.96
22381.0,-0.8931,-1.3572,-0.5811,25.9585,6.3004,39.8336,297.34,-23.08,-79.03
22395.0,-0.7215,-1.5015,-0.6981,30.8977,-11.2301,57.6423,297.41,-22.96,-79.12
22409.0,-0.5967,-1.6068,-0.7722,49.1238,-48.1692,116.564,297.49,-22.84,-79.2
22423.0,-0.4641,-1.8915,-0.8658,61.2977,-68.6909,153.1553,297.57,-22.72,-79.29
22437.0,-0.4368,-1.9968,-0.9165,73.1933,-109.317,217.5032,297.67,-22.59,-79.38
22451.0,-0.3042,-1.9968,-0.9594,107.489,-128.2388,243.3119,297.78,-22.47,-79.47
22465.0,-0.0936,-1.9968,-0.8814,128.0803,-150.0822,263.9727,297.89,-22.35,-79.55
22479.0,0.2418,-1.9968,-0.9204,152.8455,-174.8474,317.5379,298.01,-22.25,-79.63
22493.0,0.3939,-1.9968,-0.9087,157.7151,-176.5866,354.1988,298.13,-22.14,-79.7
22507.0,0.5577,-1.9968,-0.7683,164.1846,-171.0214,467.5205,298.25,-22.02,-79.77
22521.0,1.0608,-1.9968,-1.17,184.2194,-182.6387,558.5814,298.38,-21.91,-79.85
22535.0,1.9929,-1.9968,-1.4196,221.089,-234.3257,689.1553,298.53,-21.81,-79.92
22549.0,1.9929,-1.9968,-1.9968,312.0107,-305.7692,1130.5466,298.72,-21.6,-79.99
22563.0,1.9929,-1.9968,-1.9968,329.1933,-259.8561,1388.1466,298.91,-21.32,-80.06
22577.0,1.9929,-1.9968,-1.9968,218.0977,-136.517,1794.6858,299.08,-20.95,-80.15
22591.0,1.9929,-1.9968,-1.9968,108.602,-124.2735,1814.3031,299.25,-20.56,-80.26
22605.0,1.9929,-1.9968,-1.9968,-8.0589,-164.204,1636.2162,299.42,-20.23,-80.4
22619.0,1.9929,-1.9968,-1.9968,97.7498,-152.2388,1307.8684,299.57,-19.97,-80.51
22633.0,1.9929,-1.9968,-1.9968,195.2803,-24.517,1099.2423,299.68,-19.76,-80.58
22647.0,1.9929,-1.9968,0.0546,164.2542,325.9525,594.7553,299.66,-19.7,-80.54
22661.0,1.9929,-1.9968,1.9734,113.889,35.2395,671.3466,299.67,-19.61,-80.38
22675.0,1.9929,-1.9968,1.9929,43.7672,-8.517,921.7814,299.7,-19.47,-80.25
22689.0,1.9929,-1.9968,1.9266,210.7933,-422.4996,1012.2858,299.84,-19.32,-80.11
22703.0,1.9929,-1.9968,-1.014,276.8803,-541.804,1060.564,300.08,-19.16,-80.18
22717.0,1.9929,-1.9968,-0.7917,448.0107,-817.7692,1104.3901,300.38,-19.0,-80.22
22731.0,1.9929,-1.9968,-0.2847,527.802,-765.804,995.1031,300.66,-18.88,-80.21
22745.0,1.9929,-1.9968,-1.7589,558.7585,-575.0562,873.5032,300.89,-18.75,-80.23
22759.0,1.9929,-1.9968,-1.9968,593.1237,-190.1518,764.7727,301.03,-18.63,-80.21
22773.0,1.9929,-1.9968,-1.9968,583.0368,-96.5866,725.2597,301.13,-18.51,-80.19
22787.0,1.9929,-1.9968,-1.9968,730.7933,-92.204,461.6075,301.22,-18.46,-80.12
22801.0,1.9929,-1.9968,-1.092,743.0368,103.6221,387.451,301.26,-18.43,-80.01
22815.0,1.9929,-1.9968,-1.5912,726.3411,261.0482,277.1901,301.25,-18.41,-79.91
22829.0,1.9929,-1.9968,-1.2675,625.8194,356.9091,175.138,301.22,-18.42,-79.82
22843.0,1.9929,-1.9968,-0.9555,552.915,363.6569,215.4162,301.18,-18.42,-79.73
22857.0,1.9929,-1.9968,-1.0998,484.0455,234.8917,156.3553,301.17,-18.44,-79.67
22871.0,1.9929,-1.3104,-1.7706,437.4368,163.5873,131.6597,301.18,-18.48,-79.65
22885.0,1.9929,-0.8775,-1.9968,372.2542,138.7526,92.4945,301.2,-18.53,-79.66
22899.0,1.9929,0.3003,-1.9968,261.089,110.2308,-12.549,301.23,-18.64,-79.69
22913.0,1.8408,0.6552,-1.9968,175.6629,186.0569,-17.6273,301.23,-18.75,-79.74
22927.0,1.0413,0.6357,-1.9968,84.0455,261.2569,-24.0273,301.23,-18.84,-79.84
22941.0,0.3081,0.5538,-1.9968,59.4194,254.9265,-10.8099,301.23,-18.87,-79.96
22955.0,0.4836,0.7683,-1.872,36.3238,207.8308,2.7553,301.25,-18.93,-80.09
22969.0,-0.3978,1.2363,-1.7862,-24.6154,183.9004,31.9727,301.28,-18.92,-80.23
22983.0,-0.4212,1.521,-1.4508,-59.8849,118.7178,31.9727,301.32,-18.91,-80.35
22997.0,-0.2964,1.4079,-1.4703,-161.4502,34.5439,32.6684,301.38,-18.93,-80.52
23011.0,0.0468,1.5288,-1.2636,-175.9197,22.5786,6.9988,301.43,-18.98,-80.66
23025.0,-0.5772,0.9243,-1.2948,-179.0502,49.6395,-9.2099,301.49,-18.95,-80.84
23039.0,0.1443,1.0179,-0.8073,-104.198,34.196,9.7814,301.53,-19.02,-80.96
23053.0,-0.0507,0.7722,-0.819,-66.911,46.2308,42.6858,301.59,-19.04,-81.1
23067.0,-0.3315,0.8541,-0.5772,-14.6675,26.8221,75.3814,301.63,-19.02,-81.18
23081.0,0.0273,0.9555,0.1053,-9.1023,-15.8909,64.1814,301.64,-19.04,-81.15
23095.0,0.0663,0.585,0.3627,-22.598,-33.6996,54.5119,301.64,-19.05,-81.09
23109.0,0.546,0.8034,0.9126,-48.7545,-36.2735,50.8249,301.64,-19.09,-81.03
23123.0,-1.2207,0.9009,-0.0468,-26.0762,28.0047,55.9032,301.65,-19.01,-81.03
23137.0,0.156,1.092,0.7293,15.5238,-64.7953,-21.8707,301.65,-19.04,-80.96
23151.0,-0.2808,0.8736,-0.1326,-28.3719,-35.2301,3.3119,301.67,-19.04,-80.97
23165.0,0.156,1.4118,0.2184,-12.9284,-85.804,8.8771,301.7,-19.09,-80.94
23179.0,-0.0897,1.5678,0.2574,-40.5458,-75.9257,39.0684,301.72,-19.1,-80.92
23193.0,-0.3042,1.2792,-0.0858,-32.3371,-102.7083,32.3206,301.76,-19.11,-80.92
23207.0,-0.234,1.1583,0.0663,0.1498,-126.0127,21.2597,301.79,-19.12,-80.91
23221.0,-0.3705,1.0374,0.195,8.7759,-102.6387,34.8249,301.82,-19.11,-80.88
23235.0,-0.4173,1.209,0.3471,34.2368,-89.6996,38.3032,301.84,-19.1,-80.83
23249.0,-0.3081,0.7917,0.351,48.5672,-52.8301,36.4249,301.85,-19.08,-80.77
23263.0,-0.156,0.975,0.2184,39.7325,-27.717,47.5553,301.86,-19.09,-80.73
23277.0,-0.3783,1.0218,0.273,52.4629,-43.9953,21.8162,301.87,-19.08,-80.67
23291.0,-0.1326,0.8814,0.2028,44.7411,-61.1779,-4.7577,301.88,-19.1,-80.63
23305.0,-0.0468,0.78,0.2067,37.8542,-66.3257,-10.8099,301.9,-19.12,-80.58
23319.0,-0.2301,0.8307,0.2028,34.9325,-57.4214,-2.3229,301.91,-19.13,-80.53
23333.0,-0.3081,0.9399,0.2262,35.2803,-48.5866,4.564,301.92,-19.13,-80.49
23347.0,-0.4134,1.0881,0.1131,34.7238,-29.7344,7.1379,301.93,-19.12,-80.45
23361.0,-0.4485,1.1661,0.0351,38.6194,-27.0214,3.938,301.94,-19.11,-80.42
23375.0,-0.4329,1.17,0.0117,44.8803,-29.5953,0.3901,301.96,-19.11,-80.39
23389.0,-0.4641,1.1076,0.0273,54.1325,-31.0561,4.4945,301.97,-19.1,-80.35
23403.0,-0.4992,1.1349,0.1053,52.2542,-31.3344,12.9814,301.98,-19.08,-80.31
23417.0,-0.5616,1.1895,0.0897,33.0542,-28.1344,21.4684,301.99,-19.06,-80.28
23431.0,-0.5304,1.1817,0.0936,21.0194,-32.3779,16.5988,302.01,-19.05,-80.25
23445.0,-0.429,1.053,0.078,9.889,-36.8996,8.0423,302.02,-19.04,-80.22
23459.0,-0.3783,1.092,0.1248,2.3064,-36.4822,7.5553,302.03,-19.03,-80.19
23473.0,-0.3237,0.9516,0.117,-0.1284,-30.1518,8.6684,302.04,-19.03,-80.16
23487.0,-0.2145,0.8736,0.1365,7.5933,-15.1953,11.7988,302.05,-19.03,-80.12
23501.0,-0.2028,0.858,0.1209,13.9238,-8.2387,16.1814,302.05,-19.04,-80.09
23515.0,-0.1092,0.8151,0.1092,19.4194,-9.9779,23.6945,302.05,-19.05,-80.05
23529.0,-0.1092,0.8463,0.0975,25.3325,-10.604,31.9727,302.06,-19.06,-80.01
23543.0,-0.195,0.8931,0.1521,24.0803,-11.9953,36.9119,302.06,-19.06,-79.97
23557.0,-0.2457,0.9594,0.0936,19.6281,-16.7257,33.6423,302.07,-19.06,-79.93
23571.0,-0.2028,1.0647,0.1287,21.2281,-20.1344,27.5901,302.08,-19.06,-79.89
23585.0,-0.2418,1.0764,0.1443,19.3498,-9.6996,14.8597,302.08,-19.07,-79.85
23599.0,-0.2574,1.0569,0.0897,18.5846,-1.6301,12.564,302.08,-19.07,-79.82
23613.0,-0.3354,1.1076,0.0273,18.5151,1.7091,11.0336,302.09,-19.07,-79.79
23627.0,-0.3276,1.1037,-0.0195,16.9846,-1.2127,6.8597,302.1,-19.07,-79.76
23641.0,-0.3354,1.092,-0.0273,15.1759,-5.3866,4.9814,302.1,-19.07,-79.74
23655.0,-0.351,1.0608,-0.0312,11.002,-8.517,16.1119,302.11,-19.06,-79.72
23669.0,-0.39,1.053,0.0039,2.6542,-10.4648,23.138,302.12,-19.05,-79.69
23683.0,-0.4017,1.0608,0.0468,1.1238,-9.5605,29.6075,302.13,-19.04,-79.67
23697.0,-0.4407,1.0647,0.0585,-0.7545,1.5004,34.8945,302.14,-19.02,-79.64
23711.0,-0.4641,1.0725,0.0546,0.1498,6.3699,32.5293,302.14,-19.0,-79.61
23725.0,-0.4641,1.0725,0.0507,0.3585,10.0569,23.9032,302.14,-18.98,-79.59
23739.0,-0.4212,1.0296,0.0078,0.1498,9.5699,19.3119,302.15,-18.97,-79.56
23753.0,-0.3549,0.9906,0.0234,0.4281,8.3178,16.4597,302.15,-18.96,-79.54
23767.0,-0.3081,0.9828,0.0195,-0.4067,10.2656,21.6771,302.15,-18.95,-79.51
23781.0,-0.3042,0.9945,0.0195,-0.1284,9.9873,23.764,302.15,-18.95,-79.48
23795.0,-0.2847,0.9789,0.0351,-0.3371,4.7004,23.6945,302.16,-18.94,-79.46
23809.0,-0.3276,0.9828,0.0468,-0.4067,0.6656,24.251,302.16,-18.93,-79.43
23823.0,-0.3393,0.9867,0.0507,-0.7545,-2.6735,23.5553,302.17,-18.93,-79.4
23837.0,-0.3354,0.9828,0.0351,-0.7545,-3.2301,19.7293,302.17,-18.92,-79.38
23851.0,-0.3354,0.975,0.0156,-0.3371,-2.117,17.6423,302.18,-18.91,-79.35
23865.0,-0.3237,0.9633,0.0078,-0.2675,3.2395,18.4075,302.18,-18.9,-79.33
23879.0,-0.351,0.9672,-0.0234,0.4977,6.0221,21.1901,302.19,-18.89,-79.31
23893.0,-0.3432,0.9672,-0.0039,2.0281,6.1613,22.651,302.2,-18.88,-79.28
23907.0,-0.3549,0.9633,-0.0039,4.1846,6.996,24.1119,302.2,-18.87,-79.26
23921.0,-0.3705,0.9711,0.0,4.8107,6.9265,24.4597,302.2,-18.86,-79.23
23935.0,-0.4017,0.9984,0.0,3.1411,2.5439,21.1901,302.21,-18.84,-79.21
23949.0,-0.3861,1.0101,0.0078,1.6107,0.6656,19.7293,302.22,-18.83,-79.18
23963.0,-0.3705,1.0101,0.0117,-0.4067,0.6656,19.3814,302.22,-18.82,-79.16
23977.0,-0.3783,1.014,0.0117,-2.8415,2.7526,20.2858,302.23,-18.81,-79.13
23991.0,-0.3939,0.9867,0.0,-2.7023,4.0743,20.7727,302.23,-18.79,-79.11
24005.0,-0.4056,0.9945,-0.0117,1.5411,2.6134,22.5814,302.24,-18.78,-79.09
24019.0,-0.4212,0.9984,0.0,3.8368,-1.9779,21.7466,302.24,-18.76,-79.07
24033.0,-0.3705,0.9867,0.0195,5.7846,-6.3605,19.7293,302.25,-18.75,-79.04
24047.0,-0.3432,0.9672,0.039,8.8455,-6.6387,19.451,302.26,-18.74,-79.01
24061.0,-0.3315,0.9711,0.0078,9.6803,-4.9692,22.3727,302.26,-18.73,-78.98
24075.0,-0.3159,0.9828,0.0,11.2107,-6.8474,28.2858,302.27,-18.72,-78.96
24089.0,-0.3315,0.9984,-0.0156,11.002,-7.8214,30.164,302.28,-18.71,-78.93
24103.0,-0.3432,1.0023,-0.0117,10.9325,-9.0735,29.7466,302.29,-18.7,-78.91
24117.0,-0.3354,0.9945,-0.0117,11.4194,-10.9518,24.0423,302.3,-18.7,-78.88
24131.0,-0.3393,0.9906,-0.0117,11.8368,-10.2561,21.6075,302.31,-18.69,-78.86
24145.0,-0.3393,0.9828,-0.0039,12.602,-8.4474,20.2858,302.32,-18.68,-78.83
24159.0,-0.3666,0.9867,-0.0078,11.9759,-9.9083,20.564,302.32,-18.67,-78.8
24173.0,-0.3627,0.9828,0.0,10.0281,-11.5779,22.0945,302.33,-18.66,-78.78
24187.0,-0.3939,0.9906,0.0078,6.689,-11.6474,24.6684,302.34,-18.64,-78.75
24201.0,-0.3978,0.9945,0.0195,5.3672,-11.3692,23.8336,302.35,-18.63,-78.73
24215.0,-0.4056,0.9945,0.0234,2.5151,-8.8648,22.0249,302.36,-18.61,-78.7
24229.0,-0.429,0.9984,0.0156,1.4716,-8.5866,20.9119,302.36,-18.6,-78.68
24243.0,-0.4173,0.9828,0.0117,1.1238,-9.7692,19.0336,302.37,-18.58,-78.65
24257.0,-0.39,0.9477,0.0546,2.3064,-9.3518,20.2858,302.38,-18.56,-78.62
24276.0,-0.3822,0.9555,0.0624,4.602,-6.0127,23.6249,302.39,-18.54,-78.58
24290.0,-0.3822,0.9555,0.0702,5.5759,-4.4822,24.3206,302.39,-18.53,-78.55
24304.0,-0.39,0.9633,0.0663,6.1325,-1.0735,25.0858,302.39,-18.51,-78.52
24318.0,-0.3939,0.9828,0.0585,7.3151,-0.4474,24.5293,302.4,-18.5,-78.48
24332.0,-0.3822,0.9633,0.0507,7.4542,-1.1431,22.3032,302.4,-18.48,-78.45
24346.0,-0.3783,0.9594,0.0468,7.1759,-4.6909,20.1466,302.41,-18.47,-78.42
24360.0,-0.3744,0.9789,0.0663,7.4542,-6.7779,20.2162,302.41,-18.45,-78.39
24374.0,-0.3939,0.9672,0.0546,7.802,-6.7083,19.7988,302.42,-18.44,-78.36
24388.0,-0.3939,0.9594,0.0624,9.889,-5.1083,20.564,302.42,-18.42,-78.32
24402.0,-0.39,0.9633,0.0468,11.4194,-2.1866,22.7901,302.42,-18.41,-78.29
24416.0,-0.3978,0.975,0.0234,14.7585,2.196,26.1293,302.43,-18.39,-78.26
24430.0,-0.3783,0.9672,0.0039,15.3846,1.7786,25.0858,302.43,-18.37,-78.23
24444.0,-0.3822,0.9672,-0.0117,15.0368,-2.5344,23.4858,302.44,-18.36,-78.2
24458.0,-0.3822,0.9672,-0.0078,13.6455,-5.804,23.3466,302.45,-18.34,-78.18
24472.0,-0.3822,0.9594,-0.0039,13.089,-8.3083,23.4858,302.45,-18.33,-78.15
24486.0,-0.3783,0.9594,0.0039,12.5325,-9.0735,24.9466,302.46,-18.31,-78.12
24500.0,-0.3744,0.9789,0.0,12.4629,-8.1692,25.6423,302.47,-18.3,-78.09
24514.0,-0.3861,0.9906,0.0,12.1151,-4.6909,25.9206,302.48,-18.28,-78.07
24528.0,-0.3939,0.9945,-0.0039,11.9759,-3.9257,25.0162,302.48,-18.27,-78.04
24542.0,-0.39,0.9867,-0.0195,11.9759,-3.8561,23.8336,302.49,-18.25,-78.01
24556.0,-0.3744,0.975,-0.0195,11.3498,-4.204,23.4162,302.5,-18.24,-77.99
24570.0,-0.3705,0.9789,-0.0117,11.4194,-4.204,24.1814,302.5,-18.23,-77.96
24584.0,-0.3588,0.9828,-0.0117,10.7238,-3.9257,24.1814,302.51,-18.21,-77.93
24598.0,-0.3588,0.9867,-0.0117,10.2368,-3.2301,24.0423,302.52,-18.2,-77.9
24612.0,-0.3783,0.9945,-0.0195,9.7498,-3.8561,23.764,302.52,-18.19,-77.88
24626.0,-0.3705,0.9867,-0.0234,7.3151,-9.4214,21.6771,302.53,-18.17,-77.85
24640.0,-0.3627,0.9828,-0.0234,5.7846,-11.717,21.3293,302.54,-18.16,-77.83
24654.0,-0.3666,0.9828,0.0,4.5325,-12.0648,22.5119,302.55,-18.15,-77.8
24668.0,-0.3783,0.9945,0.0,4.3238,-10.8822,22.9988,302.56,-18.14,-77.78
24682.0,-0.3705,0.9906,0.0156,4.4629,-9.7692,22.7206,302.56,-18.12,-77.75
24696.0,-0.3588,0.9789,0.0195,5.089,-7.1257,23.4858,302.57,-18.11,-77.72
24710.0,-0.3705,0.9867,0.0156,5.4368,-5.9431,24.5988,302.58,-18.1,-77.69
24724.0,-0.3705,0.9906,0.0195,5.0194,-9.4909,23.6945,302.58,-18.08,-77.66
24738.0,-0.3666,0.9906,0.0156,4.0455,-10.8127,23.3466,302.59,-18.07,-77.63
24752.0,-0.3705,0.9906,0.0273,3.5585,-11.2996,22.7206,302.6,-18.06,-77.6
24766.0,-0.3783,0.9906,0.0351,3.8368,-10.8127,21.538,302.6,-18.04,-77.57
24780.0,-0.39,0.9906,0.0468,4.4629,-10.0474,21.6771,302.61,-18.03,-77.54
24794.0,-0.3978,0.9945,0.0429,6.8977,-6.3605,23.4162,302.61,-18.01,-77.51
24808.0,-0.39,0.9945,0.0429,8.289,-3.7866,24.1119,302.62,-18.0,-77.48
24822.0,-0.3822,0.9906,0.0234,9.2629,-1.4214,24.3206,302.62,-17.98,-77.45
24836.0,-0.3822,0.9906,0.0195,9.4716,0.6656,24.251,302.62,-17.97,-77.42
24850.0,-0.3783,0.9906,0.0195,8.5672,0.0395,23.764,302.63,-17.95,-77.39
24864.0,-0.3822,0.9867,0.0078,6.6194,-2.8822,21.6075,302.63,-17.94,-77.36
24878.0,-0.3783,0.9711,0.0312,6.4107,-4.3431,20.4945,302.64,-17.92,-77.33
24892.0,-0.3627,0.975,0.0351,7.1759,-4.3431,20.7032,302.64,-17.91,-77.29
24906.0,-0.3666,0.9828,0.0312,9.5411,-0.0301,22.5119,302.65,-17.89,-77.26
24920.0,-0.3744,0.9867,0.0156,10.7238,1.8482,22.5814,302.65,-17.88,-77.23
24934.0,-0.3822,0.9867,0.0039,12.1151,4.1439,23.2771,302.65,-17.86,-77.2
24948.0,-0.3822,0.9828,0.0039,12.4629,4.0743,22.9293,302.66,-17.85,-77.17
24962.0,-0.3783,0.9828,0.0039,12.1846,3.5178,22.0249,302.66,-17.83,-77.14
24976.0,-0.3705,0.9672,-0.0195,9.1238,-0.5866,18.6162,302.66,-17.82,-77.11
24990.0,-0.3705,0.9633,-0.0195,7.8716,-2.7431,18.0597,302.67,-17.81,-77.08
25004.0,-0.3666,0.9633,-0.0039,8.0803,-3.2301,20.564,302.67,-17.79,-77.05
25018.0,-0.3861,0.975,-0.0039,8.7064,-2.2561,21.2597,302.68,-17.78,-77.02
25032.0,-0.39,0.975,0.0,9.4716,-1.3518,20.9814,302.68,-17.76,-76.99
25046.0,-0.3822,0.9672,-0.0039,10.1672,0.5265,19.8684,302.69,-17.74,-76.96
25060.0,-0.3783,0.9711,-0.0195,10.0281,1.4308,20.1466,302.69,-17.73,-76.93
25074.0,-0.3822,0.9711,-0.0429,8.5672,-0.4474,19.0336,302.7,-17.71,-76.91
25088.0,-0.3744,0.9555,-0.039,8.2194,-3.6474,18.1988,302.71,-17.7,-76.88
25102.0,-0.3744,0.9633,-0.0234,8.1498,-5.9431,19.8684,302.71,-17.68,-76.86
25116.0,-0.39,0.9633,-0.0195,8.5672,-6.9866,20.9814,302.72,-17.67,-76.83
25130.0,-0.39,0.975,-0.0078,9.1238,-6.1518,21.3293,302.72,-17.65,-76.8
25144.0,-0.4017,0.9828,-0.0156,8.8455,-3.717,20.9814,302.73,-17.63,-76.77
25158.0,-0.3978,0.9828,-0.0117,8.7064,-3.2996,20.3553,302.74,-17.62,-76.74
25172.0,-0.4017,0.975,-0.0312,8.6368,-2.8127,19.1032,302.74,-17.6,-76.71
25186.0,-0.3978,0.975,-0.0273,8.4977,-3.0909,18.964,302.75,-17.58,-76.69
25200.0,-0.4017,0.975,-0.0429,8.3585,-3.5779,18.964,302.75,-17.56,-76.66
25214.0,-0.3939,0.9711,-0.0351,7.5238,-6.0822,18.6162,302.76,-17.55,-76.64
25228.0,-0.39,0.9633,-0.0312,7.1759,-6.5692,20.0771,302.77,-17.53,-76.61
25242.0,-0.4095,0.9789,-0.0351,6.7585,-6.2214,24.1814,302.77,-17.51,-76.58
25256.0,-0.4095,0.9828,-0.0351,6.5498,-6.917,23.9032,302.78,-17.49,-76.56
25270.0,-0.4095,0.9867,-0.0195,6.3411,-8.1692,23.3466,302.79,-17.47,-76.53
25284.0,-0.3978,0.9867,-0.0156,5.1585,-9.3518,22.164,302.79,-17.46,-76.5
25298.0,-0.3939,0.9711,-0.0117,5.089,-9.6996,22.0945,302.8,-17.44,-76.47
25312.0,-0.39,0.975,-0.0078,5.2281,-9.7692,23.0684,302.81,-17.42,-76.45
25326.0,-0.3978,0.9789,-0.0078,5.2977,-8.2387,23.4162,302.81,-17.4,-76.42
25340.0,-0.3978,0.9711,-0.0078,5.4368,-7.8214,23.2771,302.82,-17.38,-76.39
25354.0,-0.4017,0.9633,-0.0039,5.5064,-6.6387,24.251,302.83,-17.36,-76.36
25368.0,-0.4017,0.9711,-0.0078,5.5759,-6.2214,24.3206,302.83,-17.35,-76.33
25382.0,-0.4017,0.9711,-0.0156,5.3672,-5.9431,22.0945,302.84,-17.33,-76.3
25396.0,-0.3939,0.9555,-0.0156,5.0194,-7.4735,20.9119,302.84,-17.31,-76.27
25410.0,-0.3939,0.9516,-0.0117,5.0194,-7.9605,20.6336,302.85,-17.29,-76.24
25424.0,-0.3939,0.9711,0.0,6.0629,-7.6822,21.9553,302.86,-17.27,-76.21
25438.0,-0.39,0.9711,0.0039,6.2716,-6.6387,22.3032,302.86,-17.25,-76.18
25452.0,-0.39,0.9789,0.0,6.4107,-4.3431,21.3293,302.87,-17.24,-76.15
25466.0,-0.4017,0.9867,-0.0039,7.1064,-3.4387,20.7032,302.87,-17.22,-76.12
25480.0,-0.4173,0.9906,-0.0156,7.0368,-3.6474,20.2162,302.88,-17.2,-76.09
25494.0,-0.4056,0.9867,-0.0312,5.9933,-6.3605,19.6597,302.88,-17.18,-76.07
25508.0,-0.4017,0.9828,-0.0195,5.7151,-7.6127,19.7988,302.89,-17.16,-76.04
25522.0,-0.4056,0.9867,-0.0039,5.5064,-9.4214,21.2597,302.89,-17.15,-76.01
25536.0,-0.4095,0.9789,0.0,5.5064,-9.3518,21.538,302.9,-17.13,-75.98
25550.0,-0.4134,0.975,0.0117,5.8542,-8.7257,21.6075,302.91,-17.11,-75.95
25564.0,-0.4251,0.9711,0.0039,6.8977,-7.4735,22.0945,302.91,-17.08,-75.91
25578.0,-0.4134,0.9711,0.0078,7.4542,-7.7518,21.8162,302.92,-17.06,-75.88
25592.0,-0.4056,0.9555,0.0078,7.9411,-7.6822,22.3727,302.92,-17.04,-75.85
25606.0,-0.4095,0.9594,0.0078,8.7759,-7.6822,23.0684,302.93,-17.02,-75.82
25620.0,-0.4134,0.9516,0.0039,9.0542,-7.7518,22.651,302.93,-17.0,-75.79
25634.0,-0.4173,0.9399,0.0039,9.4716,-8.0996,22.5119,302.94,-16.98,-75.75
25648.0,-0.4368,0.9516,-0.0039,9.8194,-8.3083,23.6249,302.94,-16.95,-75.72
25662.0,-0.4212,0.9555,0.0,10.0977,-8.6561,23.3466,302.95,-16.93,-75.69
25676.0,-0.4134,0.9594,0.0,10.5846,-7.6127,23.138,302.95,-16.91,-75.66
25690.0,-0.4212,0.9633,-0.0117,10.7238,-6.3605,22.7206,302.96,-16.89,-75.63
25704.0,-0.429,0.9555,-0.0117,9.9585,-5.5257,22.164,302.96,-16.86,-75.6
25718.0,-0.4329,0.9594,-0.0156,8.9846,-5.804,22.5119,302.97,-16.84,-75.57
25732.0,-0.4251,0.9633,-0.0156,8.1498,-6.0127,22.9988,302.97,-16.82,-75.54
25746.0,-0.4251,0.9633,-0.0234,6.9672,-5.8735,22.9293,302.98,-16.79,-75.51
25760.0,-0.4251,0.9555,-0.0156,6.7585,-5.6648,23.0684,302.99,-16.77,-75.48
25774.0,-0.4329,0.9633,-0.0117,6.6194,-4.8996,22.9293,302.99,-16.75,-75.45
25788.0,-0.4212,0.9633,-0.0039,7.1064,-4.0648,23.9727,302.99,-16.72,-75.42
25802.0,-0.4173,0.9633,-0.0039,7.3151,-2.8127,24.7379,303.0,-16.7,-75.38
25816.0,-0.4134,0.9594,0.0,7.0368,-2.4648,23.9727,303.0,-16.68,-75.35
25830.0,-0.4134,0.9633,0.0,6.6194,-2.8822,22.7901,303.01,-16.66,-75.32
25844.0,-0.4368,0.9672,-0.0078,5.9238,-3.5779,21.538,303.01,-16.63,-75.29
25858.0,-0.429,0.9555,-0.0039,6.4803,-4.0648,21.051,303.02,-16.61,-75.26
25872.0,-0.4329,0.9555,-0.0039,7.3846,-3.4387,23.5553,303.02,-16.58,-75.22
25886.0,-0.4446,0.9672,-0.0156,8.0803,-2.9518,25.0162,303.02,-16.56,-75.19
25900.0,-0.4368,0.9672,-0.0117,8.5672,-3.0909,24.8771,303.03,-16.53,-75.16
25914.0,-0.4329,0.9672,-0.0195,8.9846,-3.5083,23.5553,303.03,-16.51,-75.13
25928.0,-0.4368,0.9633,-0.0273,8.7064,-3.9953,23.2075,303.04,-16.48,-75.1
25942.0,-0.429,0.9321,-0.039,7.1759,-5.1779,24.6684,303.04,-16.46,-75.07
25956.0,-0.4212,0.9477,-0.0351,7.3151,-6.0822,25.9206,303.05,-16.43,-75.04
25970.0,-0.4251,0.9711,-0.0078,7.8716,-6.7779,27.1727,303.06,-16.41,-75.01
25984.0,-0.4134,0.9672,-0.0156,8.3585,-6.6387,27.2423,303.06,-16.38,-74.98
25998.0,-0.4212,0.9672,-0.0195,8.2194,-6.4996,26.7553,303.07,-16.36,-74.95
26012.0,-0.4134,0.9633,-0.0234,7.4542,-6.6387,24.8771,303.07,-16.34,-74.92
26026.0,-0.4134,0.9555,-0.0195,6.9672,-7.1257,24.5293,303.08,-16.31,-74.89
26040.0,-0.4095,0.9594,-0.0234,6.4107,-7.8909,24.7379,303.08,-16.29,-74.86
26054.0,-0.4056,0.9594,-0.0234,6.1325,-8.7257,25.0162,303.09,-16.27,-74.82
26068.0,-0.4134,0.9672,-0.0156,6.3411,-8.3083,25.7814,303.09,-16.24,-74.79
26082.0,-0.4173,0.9711,-0.0195,7.2455,-7.1953,26.4075,303.1,-16.22,-74.76
26096.0,-0.4173,0.975,-0.0234,7.1759,-6.917,25.851,303.11,-16.19,-74.73
26110.0,-0.4095,0.9672,-0.0156,6.7585,-6.917,25.0162,303.11,-16.17,-74.7
26124.0,-0.4173,0.9594,-0.0156,5.9933,-7.7518,23.9032,303.12,-16.15,-74.67
26138.0,-0.4134,0.9594,-0.0078,5.9933,-8.0301,24.251,303.12,-16.12,-74.63
26152.0,-0.4173,0.9633,-0.0078,6.1325,-7.7518,24.5293,303.13,-16.1,-74.6
26166.0,-0.429,0.975,-0.0117,6.0629,-7.1257,24.5293,303.13,-16.08,-74.57
26180.0,-0.4212,0.9672,-0.0195,5.9238,-6.6387,24.251,303.14,-16.05,-74.54
26194.0,-0.4134,0.9555,-0.0273,6.7585,-7.1953,23.764,303.14,-16.03,-74.51
26208.0,-0.4134,0.9633,-0.0234,6.9672,-8.0996,24.5988,303.15,-16.0,-74.48
26222.0,-0.4173,0.9594,-0.0234,6.6194,-10.3257,25.5727,303.15,-15.98,-74.44
26236.0,-0.4134,0.9672,-0.0117,6.4803,-10.8127,25.7119,303.16,-15.95,-74.41
26250.0,-0.4095,0.9711,-0.0117,6.6194,-10.7431,25.5032,303.16,-15.93,-74.38
26264.0,-0.4095,0.9633,-0.0273,6.8977,-10.1866,25.364,303.17,-15.91,-74.35
26283.0,-0.4212,0.9672,-0.0351,7.0368,-10.7431,24.9466,303.18,-15.87,-74.31
26297.0,-0.4095,0.9594,-0.0429,7.0368,-10.3953,24.5988,303.19,-15.85,-74.28
26311.0,-0.4095,0.9516,-0.078,6.7585,-10.9518,24.4597,303.19,-15.83,-74.25
26325.0,-0.39,0.9438,-0.1014,5.7846,-12.7605,24.7379,303.2,-15.8,-74.23
26339.0,-0.3861,0.936,-0.1209,5.089,-15.6127,25.2249,303.21,-15.78,-74.21
26353.0,-0.3705,0.9204,-0.1833,2.7238,-24.7953,27.1727,303.23,-15.76,-74.2
26367.0,-0.3471,0.897,-0.1911,1.3325,-31.6127,28.0771,303.25,-15.74,-74.19
26381.0,-0.3276,0.8034,-0.2691,-0.3371,-49.0735,31.4858,303.28,-15.72,-74.2
26395.0,-0.3081,0.7956,-0.2652,-5.2762,-57.1431,35.1032,303.31,-15.7,-74.21
26409.0,-0.3198,0.7683,-0.3198,-10.1458,-63.3344,40.1119,303.34,-15.68,-74.23
26423.0,-0.2847,0.7371,-0.3549,-19.3284,-76.3431,52.2162,303.39,-15.65,-74.27
26437.0,-0.2574,0.7176,-0.3783,-22.1806,-87.2648,57.851,303.44,-15.64,-74.32
26451.0,-0.1872,0.7254,-0.3393,-27.1893,-105.5605,70.0945,303.49,-15.63,-74.36
26465.0,-0.1794,0.7371,-0.2964,-29.9023,-111.0561,75.0336,303.54,-15.63,-74.4
26479.0,-0.1404,0.7722,-0.1677,-32.1284,-113.4214,78.0249,303.58,-15.63,-74.4
26493.0,-0.0585,0.7917,-0.0936,-35.4675,-106.8822,82.2684,303.62,-15.64,-74.4
26507.0,-0.0858,0.8268,0.0,-36.998,-95.8214,82.5466,303.65,-15.64,-74.38
26521.0,-0.0585,0.819,0.0468,-41.7284,-73.5605,82.8249,303.67,-15.65,-74.35
26535.0,-0.1911,0.7371,0.0,-43.8849,-63.7518,85.8858,303.69,-15.63,-74.33
26549.0,-0.0819,0.8892,0.117,-41.1023,-67.5083,88.6684,303.71,-15.63,-74.3
26563.0,-0.156,0.9087,0.0663,-51.9545,-68.2735,88.0423,303.73,-15.63,-74.28
26577.0,-0.0936,0.9516,0.1443,-62.5284,-80.7257,79.2771,303.75,-15.63,-74.25
26591.0,-0.0819,0.9984,0.2145,-83.3284,-104.0996,52.2858,303.77,-15.64,-74.22
26605.0,0.0195,0.9516,0.3198,-93.1371,-115.7866,35.5901,303.79,-15.66,-74.19
26619.0,0.0351,0.8814,0.3783,-101.6241,-121.0735,22.3032,303.82,-15.69,-74.16
26633.0,0.1911,0.9126,0.4836,-111.3632,-93.8735,9.5727,303.83,-15.73,-74.12
26647.0,0.2964,0.7683,0.5694,-106.0067,-71.8214,7.5553,303.83,-15.77,-74.07
26661.0,0.351,0.6318,0.546,-90.5632,-18.604,21.7466,303.82,-15.82,-74.01
26675.0,0.0234,0.6747,0.4485,-86.7371,-7.1257,40.251,303.81,-15.83,-73.96
26689.0,-0.1326,0.7644,0.4719,-84.8589,-4.6909,62.3727,303.81,-15.82,-73.91
26703.0,-0.2067,0.8658,0.4875,-78.3197,-6.0127,93.2597,303.8,-15.79,-73.86
26717.0,-0.2925,0.9555,0.4875,-76.0936,-7.3344,97.7814,303.8,-15.76,-73.81
26731.0,-0.2457,1.0179,0.5343,-82.3545,-25.6996,88.5293,303.8,-15.74,-73.76
26745.0,-0.1872,0.9906,0.5421,-89.1023,-34.4648,78.0945,303.8,-15.73,-73.72
26759.0,-0.1443,0.9672,0.5733,-95.5719,-39.404,69.6075,303.8,-15.72,-73.67
26773.0,-0.1326,0.9087,0.5772,-106.5632,-42.3953,58.4075,303.8,-15.71,-73.62
26787.0,-0.1287,0.8853,0.5967,-111.0849,-45.1083,54.0945,303.8,-15.71,-73.58
26801.0,-0.0858,0.8268,0.6162,-118.0415,-51.717,47.3466,303.81,-15.71,-73.53
26815.0,-0.0156,0.7956,0.6552,-121.311,-56.5866,46.0249,303.81,-15.71,-73.48
26829.0,0.0273,0.741,0.7254,-123.1197,-59.7866,46.5119,303.81,-15.72,-73.43
26843.0,0.1326,0.7137,0.7722,-120.7545,-61.9431,45.2597,303.81,-15.73,-73.38
26857.0,0.1248,0.6552,0.8151,-118.9458,-56.6561,42.1293,303.81,-15.75,-73.32
26871.0,0.1365,0.5733,0.8931,-115.6067,-41.2127,30.9293,303.8,-15.76,-73.25
26885.0,0.1365,0.5616,0.9126,-113.7284,-31.9605,25.5032,303.79,-15.77,-73.19
26899.0,0.1248,0.5343,0.9906,-112.6849,-22.0127,21.6075,303.78,-15.79,-73.12
26913.0,0.117,0.5148,0.9945,-109.5545,-0.7953,13.6075,303.76,-15.8,-73.04
26927.0,0.0117,0.5031,1.0023,-105.5197,6.5091,12.1466,303.74,-15.8,-72.97
26941.0,0.0195,0.4836,1.0374,-95.5719,15.6917,9.9206,303.72,-15.8,-72.89
26955.0,-0.0585,0.4368,0.9828,-90.3545,20.2134,10.1988,303.69,-15.79,-72.81
26969.0,-0.0663,0.3861,0.9672,-83.8154,20.0047,9.7119,303.67,-15.78,-72.73
26983.0,-0.0507,0.3861,0.9438,-74.4241,17.3613,14.3032,303.64,-15.77,-72.64
26997.0,-0.039,0.3861,0.9087,-71.6415,17.6395,17.2249,303.62,-15.77,-72.56
27011.0,-0.0624,0.4095,0.8853,-68.4415,21.396,20.8423,303.6,-15.76,-72.47
27025.0,-0.0663,0.4524,0.8424,-66.8415,23.5526,20.6336,303.57,-15.75,-72.39
27039.0,-0.0507,0.4719,0.8502,-64.6849,24.8743,19.5901,303.55,-15.74,-72.31
27053.0,-0.039,0.4875,0.8463,-62.0415,30.4395,14.164,303.52,-15.73,-72.22
27067.0,-0.0468,0.4914,0.8229,-61.6936,35.8656,11.1032,303.49,-15.73,-72.14
27081.0,-0.0819,0.4836,0.8151,-65.2415,43.8656,4.0075,303.46,-15.72,-72.05
27095.0,-0.1248,0.4602,0.8034,-69.7632,45.6743,0.0423,303.43,-15.71,-71.97
27109.0,-0.1482,0.4329,0.8073,-73.8675,46.9265,-8.3055,303.4,-15.7,-71.89
27123.0,-0.156,0.3744,0.8385,-78.8762,50.2656,-12.1316,303.37,-15.68,-71.8
27137.0,-0.1716,0.351,0.8346,-79.3632,54.1613,-14.7055,303.33,-15.66,-71.72
27151.0,-0.1872,0.2964,0.8541,-75.1893,60.5613,-15.749,303.3,-15.64,-71.63
27165.0,-0.1989,0.2886,0.8736,-72.8241,65.0134,-15.0534,303.26,-15.62,-71.54
27179.0,-0.195,0.2769,0.8658,-71.8502,70.8569,-14.9142,303.22,-15.6,-71.45
27193.0,-0.234,0.2574,0.8736,-71.0849,83.796,-16.1664,303.18,-15.57,-71.36
27207.0,-0.2769,0.2574,0.8658,-71.5023,88.5265,-19.3664,303.14,-15.53,-71.27
27221.0,-0.3549,0.1989,0.8463,-74.5632,84.283,-32.3055,303.1,-15.49,-71.18
27235.0,-0.3432,0.1755,0.858,-77.4154,78.7873,-36.1316,303.05,-15.45,-71.09
27249.0,-0.3549,0.1443,0.8658,-80.1284,76.3526,-37.4534,303.01,-15.41,-71.0
27263.0,-0.312,0.1131,0.8658,-79.8502,71.1352,-38.2881,302.97,-15.37,-70.91
27277.0,-0.3666,0.0936,0.8814,-79.5023,72.8743,-37.1751,302.93,-15.33,-70.82
27291.0,-0.3471,0.0351,0.8853,-77.9023,75.17,-40.3055,302.89,-15.28,-70.73
27305.0,-0.3588,-0.0039,0.8619,-75.4676,76.0047,-41.0707,302.85,-15.23,-70.64
27319.0,-0.3939,-0.0546,0.8463,-71.6415,72.2482,-36.6881,302.81,-15.17,-70.55
27333.0,-0.4134,-0.0624,0.8775,-63.0154,60.7699,-33.4881,302.78,-15.12,-70.46
27347.0,-0.4329,-0.0975,0.9126,-58.3545,58.196,-32.0968,302.74,-15.05,-70.36
27361.0,-0.4485,-0.1014,0.9243,-48.5458,60.4221,-31.9577,302.71,-14.99,-70.26
27375.0,-0.4446,-0.1092,0.9399,-44.1632,64.3873,-32.236,302.67,-14.93,-70.17
27389.0,-0.468,-0.1092,0.9477,-41.311,69.9526,-33.9055,302.63,-14.86,-70.07
27403.0,-0.468,-0.117,0.9399,-41.4502,87.3439,-34.949,302.59,-14.8,-69.97
27417.0,-0.5148,-0.1053,0.8853,-42.4241,97.3613,-35.3664,302.55,-14.72,-69.87
27431.0,-0.507,-0.1287,0.8619,-41.7284,109.7439,-37.9403,302.5,-14.65,-69.77
27445.0,-0.5304,-0.1677,0.8424,-40.198,114.5439,-39.4707,302.46,-14.56,-69.68
27459.0,-0.5889,-0.2028,0.8229,-36.1632,126.5786,-37.9403,302.41,-14.47,-69.58
27473.0,-0.6669,-0.234,0.78,-22.6675,129.1526,-34.1838,302.36,-14.37,-69.49
27487.0,-0.741,-0.2574,0.7293,-16.5458,130.1265,-29.8012,302.32,-14.25,-69.41
27501.0,-0.8073,-0.2808,0.6942,-5.7632,124.0743,-22.149,302.28,-14.13,-69.33
27515.0,-0.8697,-0.2691,0.6474,-2.4241,116.3526,-18.1142,302.24,-14.0,-69.25
27529.0,-0.8814,-0.2769,0.6357,-1.311,91.0308,-14.3577,302.22,-13.87,-69.18
27543.0,-0.9204,-0.2496,0.6045,-5.3458,77.2569,-15.749,302.19,-13.74,-69.12
27557.0,-0.9282,-0.2535,0.5889,-6.111,63.483,-18.4621,302.17,-13.62,-69.06
27571.0,-0.9126,-0.2496,0.5772,-3.5371,38.0917,-25.2099,302.16,-13.49,-68.99
27585.0,-0.897,-0.2613,0.5733,-2.1458,29.1873,-28.2707,302.14,-13.37,-68.93
27599.0,-0.9048,-0.2847,0.5577,-1.4502,12.6308,-25.349,302.13,-13.24,-68.87
27613.0,-0.7917,-0.3354,0.5499,-1.1719,5.6047,-21.7316,302.13,-13.11,-68.81
27627.0,-0.7527,-0.3471,0.5616,-1.1023,-1.7692,-15.5403,302.12,-12.98,-68.75
27641.0,-0.7488,-0.3432,0.6084,2.4455,-7.5431,-5.6621,302.12,-12.86,-68.68
27655.0,-0.741,-0.3354,0.6279,4.1846,-4.6214,-4.8273,302.11,-12.73,-68.61
27669.0,-0.7644,-0.3354,0.6084,4.9498,7.4134,-6.7055,302.11,-12.6,-68.54
27683.0,-0.7605,-0.3471,0.5928,5.1585,11.6569,-6.2186,302.1,-12.47,-68.47
27697.0,-0.7605,-0.3627,0.5694,4.6716,13.0482,-4.4099,302.09,-12.34,-68.4
27711.0,-0.7488,-0.3588,0.5694,4.2542,8.5265,2.1293,302.09,-12.2,-68.34
27725.0,-0.7566,-0.3471,0.5811,4.4629,6.4395,2.8945,302.08,-12.07,-68.27
27739.0,-0.8151,-0.3198,0.5655,5.4368,5.1178,-2.0447,302.08,-11.94,-68.21
27753.0,-0.819,-0.3198,0.5499,8.1498,1.083,-4.4099,302.08,-11.8,-68.15
27767.0,-0.78,-0.3393,0.5655,8.0803,-4.8996,-5.6621,302.08,-11.67,-68.08
27781.0,-0.7449,-0.3471,0.5889,7.3151,-12.9692,-5.6621,302.08,-11.54,-68.01
27795.0,-0.6981,-0.3627,0.6396,6.8977,-11.8561,-5.8012,302.07,-11.42,-67.94
27809.0,-0.6981,-0.3744,0.6474,7.1759,-3.2301,-8.1664,302.07,-11.29,-67.86
27823.0,-0.6825,-0.4017,0.6747,6.7585,0.6656,-8.9316,302.06,-11.17,-67.78
27837.0,-0.6591,-0.4407,0.702,5.1585,5.2569,-8.3055,302.06,-11.04,-67.7
27851.0,-0.6396,-0.4602,0.702,5.2977,15.9699,-5.8012,302.05,-10.92,-67.62
27865.0,-0.6396,-0.4875,0.7098,7.9411,22.0221,-4.8968,302.04,-10.79,-67.53
27879.0,-0.6396,-0.4953,0.6981,17.402,34.8221,-7.0534,302.03,-10.66,-67.45
27893.0,-0.6552,-0.4875,0.6552,23.6629,40.9439,-8.7229,302.01,-10.52,-67.37
27907.0,-0.6552,-0.4797,0.6357,28.9498,45.6047,-10.1142,302.0,-10.38,-67.28
27921.0,-0.6552,-0.4602,0.5811,36.8803,52.283,-13.2447,301.99,-10.24,-67.21
27935.0,-0.5694,-0.3861,0.5733,44.6716,54.3004,-16.0968,301.97,-10.11,-67.12
27949.0,-0.5889,-0.4641,0.5694,47.6629,64.3178,-16.5142,301.95,-9.97,-67.03
27963.0,-0.6162,-0.4563,0.5616,47.5238,69.883,-17.4186,301.94,-9.82,-66.95
27977.0,-0.6318,-0.4602,0.5616,46.4107,74.8221,-18.7403,301.92,-9.68,-66.87
27991.0,-0.6825,-0.4719,0.5382,44.0455,81.9873,-26.3229,301.9,-9.53,-66.79
28005.0,-0.702,-0.4914,0.5226,44.6716,83.8656,-31.0534,301.88,-9.38,-66.73
28019.0,-0.7332,-0.4992,0.5109,49.3325,83.9352,-42.1142,301.86,-9.24,-66.66
28033.0,-0.7722,-0.4992,0.4992,53.2281,82.0569,-48.6534,301.84,-9.09,-66.6
28047.0,-0.7644,-0.5031,0.4953,57.1238,78.7178,-54.636,301.82,-8.94,-66.53
28061.0,-0.78,-0.4992,0.468,63.8716,68.1439,-61.5229,301.8,-8.8,-66.47
28075.0,-0.7761,-0.5031,0.4485,65.9585,59.796,-60.9664,301.79,-8.65,-66.41
28089.0,-0.7332,-0.4953,0.4836,66.3759,42.7526,-53.5229,301.78,-8.51,-66.35
28103.0,-0.7332,-0.4602,0.4875,61.7846,37.5352,-46.7055,301.77,-8.36,-66.28
28117.0,-0.741,-0.4407,0.4563,54.1325,33.5699,-39.2621,301.76,-8.22,-66.22
28131.0,-0.7605,-0.4407,0.4329,38.0629,24.7352,-24.4447,301.76,-8.07,-66.17
28145.0,-0.7761,-0.4524,0.39,30.202,17.1526,-16.236,301.76,-7.91,-66.13
28159.0,-0.8619,-0.4563,0.3666,17.1238,-11.6474,-2.8099,301.76,-7.76,-66.1
28173.0,-0.8619,-0.468,0.3666,14.8977,-28.2735,1.2249,301.78,-7.6,-66.07
28187.0,-0.819,-0.4797,0.4212,14.8977,-42.3953,3.3814,301.79,-7.45,-66.03
28201.0,-0.78,-0.4875,0.4719,15.802,-55.6822,3.0336,301.81,-7.3,-65.99
28215.0,-0.7215,-0.5187,0.5343,14.8281,-53.317,2.3379,301.83,-7.16,-65.93
28229.0,-0.6981,-0.5343,0.5538,11.489,-37.2474,4.7727,301.84,-7.01,-65.87
28243.0,-0.6864,-0.5499,0.5382,10.0977,-25.9779,9.4336,301.85,-6.86,-65.82
28257.0,-0.6552,-0.585,0.5226,9.889,-14.8474,15.1379,301.86,-6.71,-65.77
28271.0,-0.6318,-0.5772,0.4875,11.9759,5.4656,4.6336,301.87,-6.55,-65.72
28290.0,-0.7293,-0.5265,0.4212,4.6716,11.9352,9.6423,301.87,-6.33,-65.67
28304.0,-0.78,-0.4173,0.3822,0.7759,23.9699,6.2336,301.88,-6.17,-65.64
28318.0,-0.8151,-0.4563,0.3042,1.8194,0.3178,37.4684,301.89,-6.01,-65.62
28332.0,-0.7878,-0.4953,0.3003,-3.6762,-16.0996,29.6771,301.9,-5.84,-65.61
28346.0,-0.8151,-0.4914,0.2223,-0.8936,-32.1692,21.6771,301.92,-5.68,-65.61
28360.0,-0.7371,-0.5265,0.4641,4.3933,-55.2648,9.0858,301.94,-5.53,-65.57
28374.0,-0.5772,-0.5265,0.5031,4.7411,-55.404,6.164,301.96,-5.38,-65.51
28388.0,-0.546,-0.5109,0.5226,5.9238,-41.0735,6.9293,301.97,-5.24,-65.44
28402.0,-0.5343,-0.5655,0.5382,8.2194,-29.8735,11.5901,301.99,-5.09,-65.38
28416.0,-0.5499,-0.5421,0.5421,8.9846,-17.9779,17.2249,302.0,-4.95,-65.31
28430.0,-0.6123,-0.4914,0.5265,8.9151,-0.3083,24.3901,302.01,-4.79,-65.25
28444.0,-0.6357,-0.5187,0.5031,6.8281,4.4917,22.164,302.01,-4.64,-65.19
28458.0,-0.702,-0.4992,0.4953,3.5585,1.6395,16.8075,302.02,-4.48,-65.14
28472.0,-0.7254,-0.5421,0.507,-3.1893,-6.3605,17.5032,302.03,-4.32,-65.1
28486.0,-0.9906,-0.7215,0.5733,-11.1197,-11.7866,24.1814,302.04,-4.16,-65.07
28500.0,-0.7176,-0.4992,0.3939,-11.8154,-33.6301,71.3466,302.07,-3.99,-65.04
28514.0,-0.7098,-0.4875,0.4095,-14.0415,-40.3083,66.6858,302.09,-3.83,-65.01
28528.0,-0.6513,-0.4758,0.4524,-16.6154,-38.8474,51.1727,302.11,-3.67,-64.97
28542.0,-0.546,-0.5499,0.4758,-15.7806,-31.2648,37.8858,302.13,-3.51,-64.92
28556.0,-0.5577,-0.4641,0.5538,-7.0154,-18.8822,18.8945,302.14,-3.37,-64.85
28570.0,-0.5187,-0.312,0.5421,-5.0675,8.7352,11.7293,302.14,-3.23,-64.77
28584.0,-0.6825,-0.4836,0.4875,-12.7893,20.5613,20.3553,302.14,-3.08,-64.72
28598.0,-0.7176,-0.4017,0.3237,-16.8241,12.9091,19.3119,302.15,-2.91,-64.7
28612.0,-0.8151,-0.3744,0.3744,-21.2762,-3.2301,-0.0968,302.16,-2.76,-64.67
28626.0,-0.7605,-0.5031,0.4173,-18.911,-23.4735,-12.6881,302.17,-2.6,-64.64
28640.0,-0.6045,-0.5772,0.4446,-5.8328,-59.4388,-19.9925,302.19,-2.46,-64.6
28654.0,-0.6396,-0.4953,0.624,0.4281,-61.2474,-24.1664,302.2,-2.33,-64.53
28668.0,-0.4524,-0.6357,0.6123,17.6803,-48.7257,-8.9316,302.22,-2.2,-64.45
28682.0,-0.507,-0.5655,0.6006,17.1238,-36.2735,0.251,302.24,-2.07,-64.36
28696.0,-0.5304,-0.6201,0.5811,12.0455,-27.2996,7.8336,302.25,-1.92,-64.29
28710.0,-0.5343,-0.6279,0.5304,10.4455,-9.6996,24.5988,302.27,-1.77,-64.24
28724.0,-0.8034,-0.7098,0.4602,15.0368,-2.8822,42.1988,302.28,-1.61,-64.21
28738.0,-0.741,-0.6318,0.4368,44.8107,-28.2735,125.4684,302.31,-1.43,-64.18
28752.0,-0.6396,-0.4329,0.4251,39.1759,-37.5953,141.3293,302.34,-1.25,-64.12
28766.0,-0.5772,-0.4329,0.4446,23.7325,-35.717,139.0336,302.37,-1.07,-64.06
28780.0,-0.6006,-0.5382,0.4602,8.4281,-20.5518,87.138,302.39,-0.9,-64.02
28794.0,-0.6162,-0.4173,0.4953,8.1498,-16.517,83.5206,302.41,-0.74,-63.95
28808.0,-0.663,-0.4485,0.4914,-0.0589,-10.8127,67.1727,302.43,-0.57,-63.9
28822.0,-0.7098,-0.429,0.4758,0.4281,-12.204,59.8684,302.44,-0.41,-63.84
28836.0,-0.6825,-0.4368,0.4836,-0.4762,-11.0909,50.964,302.46,-0.25,-63.79
28850.0,-0.7371,-0.4095,0.4797,-5.4154,-14.5692,35.7988,302.47,-0.09,-63.74
28864.0,-0.7332,-0.429,0.4719,-12.7893,-16.6561,37.5379,302.48,0.07,-63.7
28878.0,-0.6591,-0.4758,0.4797,-16.5458,-25.9779,25.9206,302.5,0.22,-63.65
28892.0,-0.6357,-0.468,0.4992,-13.8328,-25.9779,14.164,302.52,0.37,-63.59
28906.0,-0.6552,-0.4992,0.5148,-13.7632,-23.8909,9.7814,302.53,0.52,-63.54
28920.0,-0.585,-0.5226,0.5148,-12.7197,-11.8561,2.2684,302.54,0.67,-63.49
28934.0,-0.5733,-0.546,0.5148,-8.6154,-4.9692,-10.1838,302.55,0.81,-63.43
28948.0,-0.6123,-0.5499,0.468,-0.6849,2.4743,-8.0968,302.56,0.96,-63.39
28962.0,-0.6552,-0.5772,0.4797,-1.2415,4.4917,3.1032,302.56,1.11,-63.35
28976.0,-0.6981,-0.5148,0.4641,-4.998,3.9352,18.6162,302.57,1.27,-63.31
28990.0,-0.702,-0.5499,0.4446,-11.0502,-2.4648,42.4075,302.59,1.43,-63.27
29004.0,-0.7098,-0.5304,0.4407,-10.9806,-6.7083,43.938,302.6,1.6,-63.24
29018.0,-0.7254,-0.5655,0.4524,-10.4936,-13.4561,41.6423,302.61,1.76,-63.21
29032.0,-0.7371,-0.4992,0.4017,-12.511,-15.7518,40.9466,302.63,1.92,-63.18
29046.0,-0.7488,-0.507,0.4134,-18.4241,-18.604,39.5553,302.65,2.08,-63.16
29060.0,-0.78,-0.4875,0.4251,-16.8241,-27.4387,38.7206,302.66,2.24,-63.13
29074.0,-0.7059,-0.5226,0.4329,-16.4067,-31.1953,35.0336,302.68,2.4,-63.1
29088.0,-0.6942,-0.507,0.4524,-11.6762,-35.2996,25.7119,302.7,2.55,-63.06
29102.0,-0.6786,-0.5382,0.4875,-9.6589,-34.8822,30.4423,302.72,2.7,-63.02
29116.0,-0.6006,-0.5694,0.4914,-7.9197,-32.7953,33.6423,302.74,2.85,-62.97
29130.0,-0.5928,-0.5772,0.4992,-4.4415,-20.1344,35.7293,302.76,3.01,-62.92
29144.0,-0.624,-0.5655,0.5031,-3.2589,-14.6387,39.4858,302.77,3.16,-62.87
29158.0,-0.6708,-0.5187,0.4914,-0.3371,-9.0735,51.5901,302.79,3.32,-62.83
29172.0,-0.6825,-0.5109,0.468,0.2194,-10.5344,57.7119,302.81,3.48,-62.78
29186.0,-0.6942,-0.5109,0.4992,2.7933,-14.4996,52.0075,302.82,3.64,-62.73
29200.0,-0.6747,-0.4875,0.5109,5.5759,-21.8735,45.051,302.84,3.8,-62.67
29214.0,-0.6591,-0.4797,0.5148,5.2281,-23.8909,38.3032,302.86,3.95,-62.61
29228.0,-0.6591,-0.4914,0.4953,4.8107,-25.1431,30.2336,302.88,4.11,-62.56
29242.0,-0.6474,-0.4836,0.5109,5.9238,-25.8387,28.2162,302.9,4.26,-62.5
29256.0,-0.6435,-0.4797,0.5187,5.8542,-26.7431,33.4336,302.92,4.41,-62.44
29270.0,-0.6162,-0.5187,0.5538,3.7672,-26.6735,35.1727,302.94,4.56,-62.37
29284.0,-0.6162,-0.4836,0.5694,5.7846,-26.604,33.9901,302.96,4.7,-62.3
29298.0,-0.6591,-0.4719,0.5577,0.289,-26.2561,36.0771,302.98,4.85,-62.23
29312.0,-0.6825,-0.4914,0.5499,-3.398,-27.717,34.7553,303.0,5.0,-62.17
29326.0,-0.6747,-0.5616,0.5616,-4.511,-29.6648,32.1814,303.02,5.15,-62.11
29340.0,-0.6981,-0.5382,0.5733,1.402,-30.4996,30.2336,303.04,5.3,-62.05
29354.0,-0.6981,-0.5109,0.6006,6.4803,-29.7344,30.8597,303.06,5.45,-61.98
29368.0,-0.7293,-0.468,0.5538,12.3933,-27.6474,35.5901,303.08,5.6,-61.92
29382.0,-0.6981,-0.4563,0.5265,12.5325,-27.9953,36.9814,303.1,5.75,-61.85
29396.0,-0.663,-0.4017,0.5421,10.8629,-28.4127,38.5814,303.12,5.9,-61.78
29410.0,-0.6201,-0.4056,0.5343,6.8281,-28.4822,41.7119,303.14,6.05,-61.7
29424.0,-0.5889,-0.4017,0.5967,2.0977,-26.7431,42.8249,303.16,6.19,-61.62
29438.0,-0.6006,-0.4641,0.5967,-11.8154,-18.5344,46.164,303.19,6.34,-61.54
29452.0,-0.6318,-0.4329,0.585,-13.8328,-16.517,44.9119,303.21,6.49,-61.46
29466.0,-0.6474,-0.4485,0.5772,-16.4762,-18.5344,49.6423,303.23,6.64,-61.39
29480.0,-0.6357,-0.4914,0.5889,-19.8154,-21.5953,49.1553,303.25,6.78,-61.32
29494.0,-0.624,-0.4836,0.5811,-19.3284,-25.4909,45.8162,303.27,6.93,-61.25
29508.0,-0.624,-0.4758,0.5811,-19.0502,-32.6561,44.6336,303.3,7.08,-61.18
29522.0,-0.5733,-0.4797,0.6006,-18.0067,-35.717,45.1901,303.33,7.22,-61.1
29536.0,-0.5499,-0.4524,0.6084,-17.1719,-37.2474,48.8771,303.35,7.36,-61.01
29550.0,-0.5382,-0.4407,0.6084,-16.8936,-36.4127,53.7466,303.38,7.49,-60.92
29564.0,-0.5343,-0.3822,0.6006,-17.1023,-35.5779,56.6684,303.41,7.63,-60.82
29578.0,-0.5538,-0.39,0.6045,-22.7371,-36.0648,63.5553,303.44,7.77,-60.73
29592.0,-0.546,-0.4056,0.6045,-26.7023,-37.8735,67.1727,303.48,7.91,-60.64
29606.0,-0.5538,-0.4212,0.6084,-29.9023,-43.0214,68.0771,303.51,8.05,-60.55
29620.0,-0.5499,-0.4329,0.6396,-33.6589,-45.317,67.1727,303.54,8.18,-60.46
29634.0,-0.546,-0.4758,0.6513,-35.9545,-45.7344,66.1293,303.58,8.32,-60.37
29648.0,-0.5421,-0.4914,0.663,-38.5284,-41.9779,63.9032,303.61,8.45,-60.28
29662.0,-0.4992,-0.5109,0.6864,-39.3632,-38.4996,62.9988,303.64,8.58,-60.18
29676.0,-0.5421,-0.4992,0.6474,-40.1284,-29.7344,55.2771,303.67,8.71,-60.09
29690.0,-0.5031,-0.6045,0.6435,-42.5632,-27.0909,52.1466,303.7,8.84,-60.02
29704.0,-0.6123,-0.5499,0.5967,-41.2415,-26.3953,47.3466,303.72,8.98,-59.96
29718.0,-0.5811,-0.4914,0.5811,-47.2241,-25.7692,61.1901,303.75,9.13,-59.89
29732.0,-0.6006,-0.5226,0.5733,-52.511,-23.404,67.6597,303.77,9.27,-59.83
29746.0,-0.5733,-0.5343,0.5889,-55.4328,-17.5605,66.5466,303.8,9.42,-59.77
29760.0,-0.6084,-0.585,0.5889,-54.3893,-14.7083,61.3293,303.82,9.56,-59.72
29774.0,-0.6435,-0.5187,0.5421,-56.4762,-13.317,63.3466,303.84,9.71,-59.67
29788.0,-0.6552,-0.585,0.5499,-56.4067,-20.204,65.2945,303.86,9.86,-59.64
29802.0,-0.6591,-0.5772,0.546,-55.3632,-26.5344,63.3466,303.88,10.01,-59.6
29816.0,-0.6786,-0.5733,0.5577,-56.3371,-34.3953,55.9727,303.91,10.15,-59.56
29830.0,-0.624,-0.5811,0.5655,-56.1284,-36.9692,57.2945,303.93,10.3,-59.52
29844.0,-0.6981,-0.6162,0.5148,-53.6241,-37.4561,55.9727,303.95,10.44,-59.49
29858.0,-0.6162,-0.546,0.5265,-47.0849,-43.6474,54.651,303.98,10.58,-59.45
29872.0,-0.6669,-0.5694,0.4953,-46.2502,-45.2474,56.4597,304.0,10.72,-59.42
29886.0,-0.6357,-0.5343,0.4914,-41.0328,-53.1083,69.8162,304.03,10.87,-59.39
29900.0,-0.5928,-0.5382,0.5889,-41.9371,-49.7692,76.4945,304.06,11.01,-59.32
29914.0,-0.6357,-0.5265,0.5148,-38.5284,-44.8301,73.1553,304.09,11.16,-59.28
29928.0,-0.5694,-0.5343,0.5382,-33.7284,-39.3344,85.4684,304.12,11.3,-59.22
29942.0,-0.6318,-0.5226,0.4758,-31.9197,-30.3605,66.7553,304.14,11.45,-59.19
29956.0,-0.6591,-0.6552,0.5265,-46.1806,-32.517,88.1814,304.17,11.59,-59.16
29970.0,0.0156,-0.7449,0.429,-118.8067,-14.7083,118.3727,304.18,11.53,-59.19
29984.0,-0.7878,-0.9672,0.6357,-93.4154,-27.9257,-7.1925,304.19,11.64,-59.21
29998.0,-0.5499,-0.3588,0.4368,-29.9719,-49.6996,59.5206,304.22,11.79,-59.15
30012.0,-0.6201,-0.6084,0.546,-43.4675,-48.7953,55.1379,304.24,11.92,-59.11
30026.0,-0.6474,-0.5109,0.4563,-35.1197,-42.6735,54.7206,304.27,12.06,-59.08
30040.0,-0.6552,-0.5538,0.4875,-34.0762,-40.517,55.5553,304.29,12.2,-59.04
30054.0,-0.6708,-0.5499,0.468,-31.7806,-38.3605,57.5032,304.31,12.35,-59.02
30068.0,-0.6903,-0.5265,0.4446,-31.2936,-40.517,57.1553,304.33,12.49,-58.99
30082.0,-0.6786,-0.5187,0.4524,-30.7371,-42.4648,58.338,304.35,12.63,-58.96
30096.0,-0.6981,-0.5421,0.3783,-28.511,-43.9953,55.5553,304.37,12.77,-58.95
30110.0,-0.6747,-0.5187,0.4719,-28.7197,-43.4388,53.9553,304.39,12.91,-58.92
30124.0,-0.6903,-0.5265,0.468,-28.0241,-40.8648,51.2423,304.41,13.06,-58.89
30138.0,-0.6864,-0.5148,0.4836,-24.0589,-35.9257,48.8075,304.43,13.2,-58.85
30152.0,-0.6864,-0.5499,0.468,-24.4067,-33.2822,48.1119,304.45,13.34,-58.82
30166.0,-0.6825,-0.4797,0.3822,-18.7719,-29.4561,46.9988,304.46,13.48,-58.8
30180.0,-0.7332,-0.585,0.4719,-20.1632,-30.917,40.8771,304.48,13.62,-58.78
30194.0,-0.6981,-0.5109,0.4407,-15.711,-31.4735,44.2162,304.49,13.76,-58.75
30208.0,-0.702,-0.5226,0.4719,-14.1806,-27.2996,40.0423,304.51,13.9,-58.72
30222.0,-0.6786,-0.4953,0.4485,-11.0502,-23.8909,41.7814,304.53,14.04,-58.68
30236.0,-0.6903,-0.507,0.4446,-11.4675,-17.4909,39.138,304.54,14.18,-58.65
30250.0,-0.7137,-0.5772,0.4836,-9.5197,-13.8735,45.8162,304.55,14.32,-58.62
30264.0,-0.6942,-0.4485,0.429,-1.7284,-10.9518,53.9553,304.57,14.47,-58.59
30278.0,-0.7254,-0.4446,0.4056,-3.6762,-10.2561,42.964,304.58,14.62,-58.56
30297.0,-0.7488,-0.4446,0.429,-4.511,-19.1605,35.8684,304.6,14.81,-58.51
30311.0,-0.7254,-0.429,0.4758,-4.0936,-22.7083,34.1988,304.62,14.96,-58.46
30325.0,-0.7098,-0.468,0.4836,-4.7197,-20.8301,28.0075,304.63,15.1,-58.41
30339.0,-0.702,-0.5031,0.468,-4.0936,-18.7431,27.7988,304.65,15.24,-58.37
30353.0,-0.6942,-0.5187,0.4953,-1.7284,-17.004,29.6771,304.66,15.37,-58.33
30367.0,-0.6903,-0.5343,0.4953,2.5151,-13.804,33.0858,304.67,15.51,-58.29
30381.0,-0.6942,-0.5187,0.5031,4.6716,-12.7605,33.9901,304.69,15.64,-58.24
30395.0,-0.6942,-0.5187,0.4992,7.3151,-12.6909,32.8075,304.7,15.78,-58.2
30409.0,-0.6903,-0.5109,0.507,8.289,-13.1083,31.2075,304.72,15.91,-58.15
30423.0,-0.6786,-0.5226,0.5187,8.9846,-14.0822,28.7727,304.73,16.05,-58.09
30437.0,-0.6591,-0.5265,0.5304,10.4455,-15.2648,25.5727,304.75,16.18,-58.04
30451.0,-0.6435,-0.5304,0.5499,11.489,-14.5692,24.1814,304.76,16.3,-57.98
30465.0,-0.6396,-0.5265,0.5616,14.4107,-11.9953,21.8858,304.78,16.43,-57.91
30479.0,-0.6279,-0.5187,0.5694,16.7064,-10.3953,20.9119,304.8,16.56,-57.84
30493.0,-0.624,-0.4836,0.5109,19.2107,-8.5866,20.8423,304.81,16.68,-57.77
30507.0,-0.6357,-0.4992,0.5148,22.689,-16.6561,18.4075,304.83,16.81,-57.71
30521.0,-0.6864,-0.4407,0.468,30.4107,-22.7779,20.1466,304.85,16.95,-57.66
30535.0,-0.6708,-0.4836,0.468,27.6281,-34.604,12.4249,304.86,17.07,-57.61
30549.0,-0.6084,-0.468,0.4563,27.6281,-39.1257,11.2423,304.88,17.2,-57.55
30563.0,-0.6513,-0.5772,0.5733,26.0977,-41.2822,6.164,304.9,17.31,-57.49
30577.0,-0.546,-0.5616,0.5499,23.4542,-34.8822,8.1814,304.92,17.41,-57.42
30591.0,-0.5967,-0.6006,0.5538,18.5151,-29.4561,5.8162,304.93,17.51,-57.36
30605.0,-0.5928,-0.6006,0.5109,14.689,-23.6822,6.0945,304.94,17.62,-57.32
30619.0,-0.5967,-0.6591,0.468,12.8803,-23.9605,8.5988,304.94,17.71,-57.31
30633.0,-0.5928,-0.5187,0.5733,18.2368,-24.6561,7.764,304.96,17.82,-57.23
30647.0,-0.5928,-0.429,0.351,21.089,-29.5257,11.8684,304.97,17.95,-57.2
30661.0,-0.5772,-0.6981,0.5928,6.689,-32.8648,12.0771,304.98,18.03,-57.16
30675.0,-0.5694,-0.5928,0.5343,11.7672,-37.0387,13.051,305.0,18.13,-57.11
30689.0,-0.5538,-0.5655,0.5499,12.7411,-37.317,14.4423,305.02,18.23,-57.04
30703.0,-0.5538,-0.5616,0.5967,10.3759,-35.8561,15.0684,305.04,18.33,-56.96
30717.0,-0.585,-0.5382,0.5889,7.2455,-33.6301,15.2771,305.06,18.44,-56.89
30731.0,-0.6006,-0.5421,0.585,5.3672,-37.5257,13.6771,305.09,18.54,-56.81
30745.0,-0.6474,-0.5655,0.585,5.9238,-53.1083,6.3727,305.11,18.65,-56.75
30759.0,-0.6201,-0.5499,0.5733,8.9846,-64.6561,3.7293,305.14,18.75,-56.68
30773.0,-0.5421,-0.5421,0.6279,11.2803,-72.2387,1.7119,305.17,18.84,-56.58
30787.0,-0.4758,-0.5616,0.663,17.1933,-76.6909,-4.9664,305.21,18.9,-56.47
30801.0,-0.3939,-0.5343,0.7176,19.8368,-71.7518,-5.1055,305.26,18.93,-56.31
30815.0,-0.39,-0.5382,0.7293,17.889,-49.7692,-3.436,305.3,18.96,-56.16
30829.0,-0.3861,-0.5382,0.7293,15.1064,-37.3866,1.9206,305.35,19.0,-56.01
30843.0,-0.3978,-0.5304,0.7137,14.9672,-25.2822,9.2945,305.39,19.04,-55.86
30857.0,-0.4095,-0.5343,0.7098,9.7498,-7.1953,22.651,305.42,19.09,-55.72
30871.0,-0.468,-0.5343,0.6825,5.9238,-1.0735,27.0336,305.46,19.17,-55.6
30885.0,-0.4875,-0.507,0.663,2.3759,2.1265,32.3206,305.49,19.25,-55.48
30899.0,-0.4953,-0.5109,0.6396,-0.2675,0.596,31.0684,305.51,19.35,-55.37
30913.0,-0.3939,-0.4992,0.6552,-1.5197,-1.4909,28.8423,305.55,19.4,-55.24
30927.0,-0.4446,-0.7293,0.975,-5.0675,-1.6301,7.4858,305.58,19.41,-55.1
30941.0,-0.4368,-0.3588,0.585,3.3498,-4.0648,18.5466,305.62,19.5,-54.96
30955.0,-0.4836,-0.6474,0.7098,-2.8415,-4.1344,16.8075,305.64,19.56,-54.87
30969.0,-0.4875,-0.5616,0.7059,-6.1806,-1.2822,19.7293,305.67,19.63,-54.76
30983.0,-0.4524,-0.6201,0.702,-7.0849,-0.9344,20.9119,305.69,19.69,-54.67
30997.0,-0.4836,-0.6201,0.6552,-4.4415,-0.7257,13.1206,305.7,19.75,-54.59
31011.0,-0.5109,-0.5772,0.6396,-2.0762,-4.5518,12.0771,305.72,19.83,-54.51
31025.0,-0.4758,-0.5538,0.6552,-0.198,-15.4735,21.2597,305.74,19.9,-54.41
31039.0,-0.4524,-0.507,0.7176,2.6542,-18.5344,24.1814,305.78,19.96,-54.28
31053.0,-0.3276,-0.2496,0.6903,5.0194,-19.8561,14.3032,305.84,20.0,-54.11
31067.0,-0.3315,-0.468,0.663,2.7238,-15.9605,18.4075,305.88,20.02,-53.96
31081.0,-0.3744,-0.4095,0.7215,-7.5719,-15.1257,4.7727,305.92,20.06,-53.8
31095.0,-0.468,-0.4875,0.6942,-10.4936,-35.717,18.5466,305.96,20.12,-53.68
31109.0,-0.4056,-0.546,0.7215,-2.2154,-45.4561,32.7379,306.0,20.16,-53.54
31123.0,-0.1716,-0.5811,0.8229,5.3672,-49.4909,84.7727,306.06,20.09,-53.39
31137.0,-0.234,-0.5967,0.8463,-7.1545,-30.0822,116.9814,306.12,20.06,-53.24
31151.0,-0.4992,-0.5967,0.7176,-7.9893,-17.9779,131.5206,306.16,20.14,-53.14
31165.0,-0.4329,-0.4953,0.702,5.2281,10.9613,60.4945,306.2,20.21,-53.01
31179.0,-0.4602,-0.6162,0.6435,2.6542,13.7439,49.2945,306.21,20.27,-52.94
31193.0,-0.4953,-0.5343,0.6162,5.0194,12.7699,44.0075,306.23,20.36,-52.87
31207.0,-0.5733,-0.5616,0.5889,-0.9632,3.7265,39.0684,306.24,20.45,-52.82
31221.0,-0.5421,-0.6162,0.6006,-1.311,-4.4822,40.3206,306.24,20.53,-52.78
31235.0,-0.5031,-0.6006,0.624,2.3064,-14.9866,46.5814,306.26,20.61,-52.72
31249.0,-0.4875,-0.5967,0.6357,1.9585,-16.0301,49.7814,306.28,20.67,-52.65
31263.0,-0.4797,-0.5811,0.6396,0.8455,-15.9605,56.4597,306.3,20.74,-52.58
31277.0,-0.4641,-0.5733,0.6201,-1.4502,-12.9692,57.6423,306.32,20.81,-52.51
31291.0,-0.4914,-0.5889,0.6162,-2.8415,-12.0648,56.4597,306.34,20.88,-52.45
31305.0,-0.4953,-0.5811,0.624,1.3325,-12.9692,60.0771,306.35,20.95,-52.39
31319.0,-0.5538,-0.6201,0.5889,-6.5284,-15.3344,49.7814,306.36,21.03,-52.35
31333.0,-0.5031,-0.4875,0.5382,-0.8241,-26.3953,44.6336,306.38,21.12,-52.29
31347.0,-0.4797,-0.5148,0.5616,-0.8936,-29.5257,40.7379,306.4,21.2,-52.23
31361.0,-0.4641,-0.507,0.5772,0.6368,-30.7083,40.0423,306.42,21.27,-52.16
31375.0,-0.4524,-0.507,0.5928,-0.7545,-26.1866,36.9814,306.45,21.34,-52.08
31389.0,-0.4368,-0.5148,0.5967,-2.2849,-21.2474,37.8162,306.47,21.4,-52.0
31403.0,-0.4446,-0.5031,0.5967,-4.0241,-9.2127,40.5293,306.49,21.47,-51.92
31417.0,-0.4875,-0.5187,0.5733,-6.3197,-4.9692,40.3901,306.51,21.54,-51.86
31431.0,-0.5031,-0.5109,0.5655,-6.9458,-2.8127,39.8336,306.52,21.63,-51.8
31445.0,-0.5187,-0.546,0.5499,-9.1023,-3.0214,36.4249,306.52,21.71,-51.77
31459.0,-0.5265,-0.5694,0.5694,-10.1458,-4.6214,35.451,306.53,21.79,-51.73
31473.0,-0.5265,-0.5811,0.5655,-9.798,-7.404,32.5293,306.54,21.86,-51.7
31487.0,-0.5265,-0.5889,0.5577,-10.0067,-9.3518,32.7379,306.54,21.93,-51.67
31501.0,-0.5148,-0.5928,0.5655,-9.5197,-11.7866,34.2684,306.54,22.0,-51.64
31515.0,-0.507,-0.5889,0.5733,-8.6849,-14.7779,34.2684,306.55,22.06,-51.61
31529.0,-0.5031,-0.5928,0.585,-7.9893,-14.917,34.6162,306.56,22.13,-51.57
31543.0,-0.5109,-0.585,0.5655,-7.2936,-14.0822,33.1553,306.56,22.19,-51.54
31557.0,-0.5226,-0.5772,0.5616,-5.6936,-14.6387,32.5293,306.57,22.26,-51.5
31571.0,-0.5187,-0.5733,0.546,-5.4154,-16.0996,31.6249,306.57,22.33,-51.48
31585.0,-0.4056,-0.5304,0.5304,-2.5632,-20.3431,21.7466,306.58,22.37,-51.43
31599.0,-0.5889,-0.5733,0.2808,-3.1197,-17.3518,-0.1664,306.56,22.45,-51.47
31613.0,-0.2262,0.2574,0.234,-2.911,-31.1953,25.9206,306.61,22.53,-51.34
31627.0,-0.6669,-1.1427,0.8463,-16.8936,-21.5953,12.8423,306.6,22.54,-51.36
31641.0,-0.4134,-0.5655,0.624,3.2107,-23.1257,18.8945,306.61,22.57,-51.29
31655.0,-0.5889,-0.6669,0.5655,-2.7023,-19.9257,16.1119,306.61,22.63,-51.28
31669.0,-0.5187,-0.5811,0.5811,-1.311,-20.8301,18.7553,306.62,22.69,-51.24
31683.0,-0.4992,-0.5694,0.6006,-0.8241,-20.8996,15.6945,306.63,22.75,-51.19
31697.0,-0.4797,-0.5967,0.6396,-0.2675,-19.3692,16.1119,306.64,22.79,-51.13
31711.0,-0.468,-0.6045,0.6279,0.5672,-16.7953,17.0858,306.64,22.82,-51.08
31725.0,-0.5772,-0.624,0.5967,-0.6849,-9.0735,19.0336,306.64,22.89,-51.06
31739.0,-0.4563,-0.5694,0.624,-0.9632,-5.6648,21.4684,306.65,22.93,-51.0
31753.0,-0.4602,-0.5928,0.6357,-3.398,-0.4474,25.364,306.66,22.97,-50.94
31767.0,-0.4875,-0.5733,0.6123,-4.4415,1.7786,27.7293,306.67,23.03,-50.89
31781.0,-0.4914,-0.5928,0.6123,-4.6502,1.9178,30.9293,306.67,23.08,-50.85
31795.0,-0.5148,-0.5928,0.5928,-4.8589,0.5265,33.9901,306.68,23.14,-50.81
31809.0,-0.5343,-0.5811,0.5655,-5.0675,-2.1866,37.4684,306.68,23.21,-50.78
31823.0,-0.5343,-0.5772,0.5655,-5.1371,-10.1866,45.9553,306.68,23.28,-50.75
31837.0,-0.5304,-0.5889,0.5616,-3.1893,-15.5431,51.7293,306.69,23.34,-50.73
31851.0,-0.4563,-0.5655,0.5616,-1.6589,-20.0648,52.9119,306.7,23.39,-50.69
31865.0,-0.4914,-0.585,0.585,0.289,-19.8561,38.0249,306.71,23.44,-50.65
31879.0,-0.7449,-0.5538,0.4758,-2.2154,-19.8561,42.7553,306.71,23.55,-50.64
31893.0,-0.4836,-0.546,0.5772,-17.2415,-33.2822,114.6858,306.74,23.61,-50.59
31907.0,-0.4212,-0.468,0.5772,-23.5719,-37.2474,110.9293,306.78,23.67,-50.51
31921.0,-0.4368,-0.4563,0.5889,-36.0241,-30.2214,94.651,306.82,23.74,-50.42
31935.0,-0.4797,-0.5109,0.5694,-37.2762,-26.1866,95.764,306.84,23.81,-50.37
31949.0,-0.5148,-0.624,0.5733,-42.6328,-23.6127,83.5901,306.85,23.86,-50.36
31963.0,-0.4212,-0.5694,0.5577,-44.511,-21.1083,68.2162,306.86,23.9,-50.33
31977.0,-0.4953,-0.5811,0.5811,-42.3545,-14.4301,38.5814,306.87,23.95,-50.31
31991.0,-0.3276,-0.5538,0.5928,-35.8154,-14.8474,34.8945,306.88,23.93,-50.25
32005.0,-0.5109,-0.6747,0.6084,-9.3806,-2.0474,-18.4621,306.86,23.96,-50.25
32019.0,-0.4095,-0.6435,0.7449,21.5064,11.9352,-51.5055,306.86,23.94,-50.17
32033.0,-0.2613,-0.7761,0.7098,78.2716,20.4221,-13.036,306.84,23.86,-50.14
32047.0,-0.7605,-0.1482,0.2964,61.7151,28.8395,-38.9838,306.84,24.0,-50.09
32061.0,-0.4407,-0.6006,0.5889,-8.8241,3.9352,13.7466,306.83,24.02,-50.06
32075.0,-0.5733,-0.4719,0.5187,0.2194,-5.9431,17.9901,306.84,24.11,-50.03
32089.0,-0.5616,-0.5577,0.5343,-2.7023,-8.2387,18.6162,306.83,24.18,-50.01
32103.0,-0.5733,-0.6084,0.5616,-1.5197,-12.1344,19.7988,306.83,24.24,-49.99
32117.0,-0.5616,-0.6123,0.5772,2.1672,-16.5866,26.8945,306.83,24.3,-49.97
32131.0,-0.5538,-0.6006,0.5577,2.6542,-19.3692,31.138,306.83,24.36,-49.96
32145.0,-0.5421,-0.5967,0.585,2.8629,-23.1953,34.4075,306.83,24.41,-49.93
32159.0,-0.546,-0.5733,0.5928,2.7238,-23.1257,34.1988,306.84,24.47,-49.89
32173.0,-0.5304,-0.5499,0.5967,0.289,-19.6474,31.2075,306.85,24.53,-49.84
32187.0,-0.507,-0.5811,0.6045,-1.5893,-17.4909,29.8858,306.86,24.58,-49.81
32201.0,-0.4953,-0.5772,0.5928,-2.911,-14.3605,30.3727,306.86,24.62,-49.77
32215.0,-0.5031,-0.6045,0.5811,-4.1632,-8.517,30.8597,306.86,24.66,-49.75
32229.0,-0.5226,-0.6123,0.585,-3.1197,-6.917,32.5293,306.86,24.71,-49.73
32243.0,-0.5109,-0.5928,0.5538,-3.398,-7.3344,34.338,306.86,24.76,-49.71
32257.0,-0.4992,-0.5967,0.5733,-3.2589,-8.6561,32.5988,306.86,24.8,-49.69
32271.0,-0.4836,-0.5811,0.6162,-3.2589,-7.1953,31.6249,306.86,24.84,-49.65
32285.0,-0.4719,-0.5928,0.6084,-7.0154,7.6221,30.5814,306.86,24.87,-49.61
32304.0,-0.5304,-0.6045,0.546,-8.5458,16.7352,30.0249,306.85,24.95,-49.61
32318.0,-0.4953,-0.6045,0.5187,-7.2241,12.6308,30.9293,306.83,24.99,-49.61
32332.0,-0.507,-0.5694,0.546,-2.7719,3.5178,33.5727,306.83,25.05,-49.59
32346.0,-0.4836,-0.5577,0.5811,-2.2849,1.2221,30.7206,306.83,25.09,-49.55
32360.0,-0.4875,-0.5889,0.5655,-3.6067,3.2395,27.0336,306.83,25.13,-49.53
32374.0,-0.4875,-0.5382,0.5811,-3.5371,8.6656,31.5553,306.83,25.18,-49.49
32388.0,-0.5226,-0.5655,0.5265,-7.1545,10.7526,30.9293,306.82,25.24,-49.48
32402.0,-0.4758,-0.6201,0.4953,-8.6849,3.6569,37.5379,306.81,25.28,-49.49
32416.0,-0.5421,-0.5694,0.5304,-8.0589,0.1786,38.9293,306.8,25.34,-49.48
32430.0,-0.5109,-0.5538,0.5304,-7.9197,-4.4127,40.7379,306.8,25.39,-49.47
32444.0,-0.5187,-0.5889,0.546,-5.8328,-7.2648,36.4249,306.8,25.44,-49.45
32458.0,-0.5187,-0.5811,0.5499,-4.4415,-7.6127,34.1988,306.8,25.49,-49.44
32472.0,-0.5733,-0.5772,0.546,-2.911,-3.4387,28.4945,306.79,25.55,-49.42
32486.0,-0.5889,-0.5616,0.5265,-2.7719,-0.0301,24.5293,306.79,25.62,-49.41
32500.0,-0.7449,-0.4446,0.4758,-0.3371,-5.7344,12.0771,306.79,25.73,-49.39
32514.0,-0.5031,-0.741,0.4446,-1.6589,-1.9083,15.1379,306.76,25.75,-49.44
32528.0,-0.6513,-0.6006,0.4212,8.0803,-15.7518,16.1119,306.74,25.82,-49.46
32542.0,-0.5889,-0.5733,0.4914,14.9672,-30.917,8.3901,306.73,25.88,-49.45
32556.0,-0.4953,-0.6396,0.5148,14.202,-28.2735,6.164,306.72,25.91,-49.46
32570.0,-0.4992,-0.6396,0.5187,13.6455,-22.4996,8.1119,306.71,25.93,-49.46
32584.0,-0.5109,-0.6318,0.5421,13.4368,-9.9779,13.8162,306.69,25.96,-49.46
32598.0,-0.4368,-0.5772,0.5382,11.0716,-2.6735,15.4858,306.69,25.98,-49.44
32612.0,-0.4095,-0.6045,0.5889,2.9325,19.5873,24.3206,306.68,25.98,-49.42
32626.0,-0.468,-0.6318,0.5265,2.3759,26.6134,29.1206,306.66,26.01,-49.43
32640.0,-0.4914,-0.5694,0.4953,2.7238,30.4395,33.2249,306.64,26.06,-49.43
32654.0,-0.6357,-0.6045,0.468,0.9151,28.9091,34.2684,306.62,26.14,-49.44
32668.0,-0.702,-0.5889,0.4485,1.402,19.4482,28.0075,306.6,26.22,-49.46
32682.0,-0.7215,-0.6045,0.429,7.3846,-11.9953,5.4684,306.59,26.3,-49.47
32696.0,-0.6903,-0.6396,0.4602,10.6542,-29.0387,-5.4534,306.57,26.36,-49.49
32710.0,-0.5577,-0.8073,0.4602,14.6194,-43.2996,-12.4099,306.54,26.37,-49.54
32724.0,-0.5382,-0.6006,0.4992,20.8803,-58.117,-8.5142,306.54,26.41,-49.53
32738.0,-0.5265,-0.6201,0.546,15.7325,-57.8387,-4.8968,306.53,26.43,-49.52
32752.0,-0.5187,-0.624,0.5538,7.8716,-47.8214,2.6858,306.53,26.45,-49.51
32766.0,-0.4758,-0.5694,0.5967,4.5325,-42.5344,10.6858,306.54,26.47,-49.47
32780.0,-0.4953,-0.5616,0.546,-3.8849,-35.6474,15.9032,306.54,26.5,-49.44
32794.0,-0.6357,-0.5733,0.4524,-18.0762,-24.517,31.9032,306.53,26.57,-49.46
32808.0,-0.3705,-0.6084,0.6591,-42.9806,-18.3257,58.5466,306.55,26.54,-49.41
32822.0,-0.4758,-0.6474,0.5499,-28.7197,-0.2387,22.9293,306.54,26.56,-49.42
32836.0,-0.5421,-0.6279,0.5304,-28.998,3.9352,17.9206,306.52,26.6,-49.43
32850.0,-0.5304,-0.6747,0.4914,-30.3893,3.796,14.164,306.5,26.63,-49.46
32864.0,-0.4992,-0.7176,0.4953,-25.311,-3.717,12.2858,306.47,26.65,-49.5
32878.0,-0.4719,-0.7098,0.5109,-21.1371,-8.0301,12.2162,306.45,26.66,-49.53
32892.0,-0.4797,-0.7449,0.5304,-20.8589,-13.4561,13.3988,306.42,26.66,-49.57
32906.0,-0.3939,-0.7644,0.5538,-18.7023,-10.7431,13.7466,306.4,26.63,-49.6
32920.0,-0.3588,-0.7059,0.6435,-17.0328,-2.604,17.7119,306.39,26.59,-49.59
32934.0,-0.2145,-0.9438,0.6981,-19.8849,44.6308,16.5293,306.36,26.5,-49.63
32948.0,-0.3861,-0.7605,0.5148,-12.5806,63.5526,18.3379,306.31,26.49,-49.68
32962.0,-0.4446,-0.8151,0.4602,-9.9371,72.5265,33.1553,306.27,26.5,-49.74
32976.0,-0.5226,-0.7878,0.3939,-5.5545,70.7873,36.4945,306.22,26.53,-49.8
32990.0,-0.5889,-0.78,0.3549,-0.8241,66.6134,37.1206,306.18,26.59,-49.87
33004.0,-0.6396,-0.7605,0.3276,9.1238,51.2395,33.4336,306.14,26.64,-49.93
33018.0,-0.6318,-0.7644,0.3393,12.0455,41.9873,29.8858,306.1,26.7,-49.99
33032.0,-0.6279,-0.7839,0.3549,13.5064,30.9265,27.3119,306.06,26.75,-50.04
33046.0,-0.5694,-0.7956,0.429,13.2977,30.7873,29.1901,306.02,26.78,-50.09
33060.0,-0.5577,-0.7956,0.4368,12.2542,36.7004,38.9988,305.99,26.82,-50.14
33074.0,-0.624,-0.7488,0.351,10.5846,54.8569,44.1466,305.95,26.88,-50.2
33088.0,-0.6513,-0.7254,0.3081,11.1411,58.9612,48.4597,305.91,26.94,-50.26
33102.0,-0.7098,-0.6903,0.2457,15.5238,51.3091,51.6597,305.87,27.02,-50.31
33116.0,-0.7527,-0.6513,0.2223,18.8629,39.5526,47.6249,305.84,27.11,-50.36
33130.0,-0.7059,-0.6318,0.2496,20.3238,23.8308,46.7206,305.81,27.19,-50.41
33144.0,-0.5499,-0.6123,0.4095,12.8803,15.2047,47.3466,305.79,27.25,-50.43
33158.0,-0.5538,-0.6279,0.4173,4.8803,21.4656,52.0771,305.76,27.31,-50.46
33172.0,-0.6006,-0.546,0.2964,-3.1893,41.7786,56.251,305.74,27.39,-50.5
33186.0,-0.6786,-0.5265,0.2418,-3.1893,44.9786,50.8945,305.71,27.49,-50.54
33200.0,-0.7644,-0.5109,0.1326,-0.5458,40.7352,36.4249,305.68,27.59,-50.6
33214.0,-0.8112,-0.5109,0.0897,9.402,6.4395,27.2423,305.65,27.69,-50.65
33228.0,-0.8658,-0.4524,-0.0117,17.4716,-21.1083,19.7293,305.62,27.79,-50.7
33242.0,-0.9243,-0.4368,-0.0117,38.8977,-90.2561,-17.6968,305.61,27.87,-50.73
33256.0,-0.8697,-0.4212,0.0546,50.8629,-123.6474,-39.2621,305.6,27.95,-50.76
33270.0,-0.5928,-0.5265,0.3393,56.7064,-150.4301,-72.7229,305.59,27.98,-50.76
33284.0,-0.4875,-0.6123,0.4992,55.4542,-157.1779,-85.8012,305.59,27.96,-50.74
33298.0,-0.351,-0.6552,0.7176,48.7759,-138.7431,-92.6881,305.62,27.85,-50.65
33312.0,-0.3159,-0.6591,0.741,22.202,-85.5257,-94.3577,305.64,27.73,-50.57
33326.0,-0.3042,-0.6435,0.6474,3.3498,-55.8909,-98.3229,305.63,27.62,-50.53
33340.0,-0.3354,-0.6591,0.6006,-14.8762,-12.6214,-89.2794,305.61,27.55,-50.52
33354.0,-0.3432,-0.6552,0.5733,-28.0241,2.6134,-82.3925,305.58,27.48,-50.52
33368.0,-0.312,-0.6591,0.5499,-28.5806,13.1178,-79.4012,305.55,27.41,-50.54
33382.0,-0.2535,-0.6669,0.6279,-27.6067,40.2482,-84.4099,305.52,27.31,-50.53
33396.0,-0.3393,-0.741,0.5226,-31.0154,46.5786,-101.8707,305.47,27.25,-50.58
33410.0,-0.3159,-0.6669,0.4563,0.8455,15.9699,-134.4273,305.41,27.19,-50.63
33424.0,-0.1131,-0.8112,0.4134,-4.5806,17.0134,-141.3142,305.34,27.08,-50.71
33438.0,-0.0741,-0.7098,0.5499,-2.4936,22.6482,-155.6447,305.29,26.92,-50.73
33452.0,0.0,-0.9984,0.4719,0.7759,33.8482,-154.4621,305.22,26.79,-50.82
33466.0,-0.0468,-1.0257,0.4875,8.2194,41.1526,-155.9229,305.15,26.67,-50.9
33480.0,-0.0117,-1.0569,0.4875,2.9325,49.9873,-131.5751,305.07,26.55,-50.98
33494.0,-0.0624,-0.9555,0.6279,10.9325,42.0569,-112.862,305.02,26.41,-51.02
33508.0,-0.1404,-1.1622,0.4329,-0.3371,43.3091,-81.7664,304.95,26.33,-51.12
33522.0,-0.2535,-0.9906,0.3705,6.0629,29.5352,-48.6534,304.89,26.27,-51.2
33536.0,-0.2652,-0.9594,0.3549,11.9759,16.7352,-35.1577,304.84,26.23,-51.29
33550.0,-0.2808,-0.9243,0.3198,18.3759,-1.004,-14.2881,304.79,26.19,-51.37
33564.0,-0.2457,-0.9048,0.3471,26.2368,-8.8648,-6.5664,304.75,26.14,-51.44
33578.0,-0.2262,-0.8775,0.3666,25.3325,-14.4301,-1.0707,304.71,26.08,-51.5
33592.0,-0.1248,-0.8775,0.4251,5.5064,-29.3866,11.8684,304.68,26.0,-51.56
33606.0,-0.0741,-0.7332,0.507,4.9498,-20.3431,14.5119,304.67,25.88,-51.59
33620.0,-0.0975,-0.8385,0.3744,-2.5632,-17.4214,18.4771,304.64,25.8,-51.65
33634.0,0.0039,-0.858,0.5187,-19.3284,-25.1431,11.2423,304.62,25.67,-51.69
33648.0,-0.1092,-0.8502,0.3939,-17.9371,-12.204,19.1727,304.59,25.59,-51.76
33662.0,-0.2925,-0.9477,0.4095,-19.6762,-6.5692,22.5814,304.56,25.55,-51.84
33676.0,0.2496,-0.5226,0.3393,-18.8415,0.9439,38.651,304.55,25.41,-51.86
33690.0,-0.0624,-0.7254,0.4134,-14.8762,-7.4735,13.2597,304.52,25.3,-51.91
33704.0,-0.0468,-0.897,0.4875,-20.1632,2.4743,7.2771,304.49,25.2,-51.96
33718.0,-0.1092,-0.8541,0.4446,-14.8067,12.0743,-0.3055,304.46,25.12,-52.03
33732.0,-0.0897,-0.8073,0.4251,-14.111,20.1439,-9.9751,304.42,25.02,-52.09
33746.0,0.2145,-1.0023,0.3783,-54.2502,49.8482,74.1293,304.39,24.92,-52.17
33760.0,0.1755,-0.741,0.6201,-39.3632,48.6656,41.0858,304.38,24.79,-52.17
33774.0,-0.6006,-1.2285,0.2652,-39.711,52.9091,20.6336,304.33,24.81,-52.27
33788.0,-0.1599,-0.9906,0.2067,-22.3893,24.4569,39.6249,304.29,24.77,-52.37
33802.0,-0.1482,-1.0062,0.273,-20.2328,9.9178,24.1814,304.25,24.72,-52.46
33816.0,-0.117,-0.9789,0.3744,-20.0936,6.5091,21.8858,304.21,24.65,-52.54
33830.0,-0.0663,-0.9867,0.4329,-26.2849,5.7439,24.0423,304.18,24.57,-52.61
33844.0,-0.0624,-1.014,0.4095,-30.9458,9.6395,27.7293,304.15,24.49,-52.69
33858.0,-0.1014,-1.0257,0.3861,-33.1023,14.1613,33.0858,304.11,24.43,-52.77
33872.0,-0.1638,-0.9711,0.2886,-32.9632,18.6134,36.9119,304.07,24.38,-52.86
33886.0,-0.1521,-1.0101,0.2652,-31.0154,18.9613,38.7206,304.03,24.34,-52.95
33900.0,-0.2028,-1.0179,0.2574,-33.7284,26.5439,52.1466,303.99,24.31,-53.05
33914.0,-0.3705,-1.3065,0.1521,-43.2589,39.3439,52.4249,303.95,24.31,-53.16
33928.0,-0.2379,-1.0959,-0.195,-16.3371,4.0743,62.5119,303.91,24.31,-53.27
