t_ms,ax,ay,az,gx,gy,gz,yaw,pitch,roll
1131714.0,-0.9048,0.4134,-0.2535,-8.6817,-11.4351,-4.3334,244.29,29.26,169.07
1131733.0,-0.8541,0.4095,-0.2418,-4.9948,-11.1569,-0.0203,244.25,29.4,168.98
1131752.0,-0.8229,0.4641,-0.2613,-1.0296,-6.4264,1.7884,244.19,29.53,168.86
1131772.0,-0.8619,0.4446,-0.2847,-0.5426,-7.1221,4.084,244.14,29.67,168.75
1131791.0,-0.8463,0.4836,-0.2886,-6.1078,-7.8177,8.8145,244.08,29.8,168.63
1131810.0,-0.8502,0.4992,-0.2847,-8.2643,-7.8177,8.6753,244.03,29.94,168.51
1131829.0,-0.8775,0.4875,-0.3237,-7.0817,-8.1656,9.371,243.97,30.07,168.39
1131848.0,-0.858,0.4485,-0.2886,-4.0209,-14.7047,15.9797,243.91,30.21,168.28
1131867.0,-0.9126,0.4095,-0.2847,8.3617,-21.3134,18.484,243.86,30.36,168.18
1131886.0,-0.8775,0.4602,-0.2106,22.9009,-29.7308,17.4406,243.81,30.49,168.08
1131905.0,-0.897,0.4953,-0.1872,24.2922,-32.4438,20.7797,243.75,30.63,167.98
1131924.0,-0.9126,0.5265,-0.1989,25.9617,-34.6699,22.0319,243.69,30.76,167.88
1131943.0,-0.9126,0.6084,-0.2145,23.8052,-34.2525,22.3101,243.62,30.88,167.76
1131962.0,-0.8931,0.6279,-0.1872,14.4835,-32.4438,25.5797,243.55,31.0,167.63
1131982.0,-0.8814,0.7098,-0.1833,11.7704,-26.5308,21.7536,243.47,31.11,167.49
1132001.0,-0.8463,0.702,-0.2223,2.0313,-19.6438,14.3101,243.39,31.21,167.35
1132020.0,-0.7956,0.6786,-0.234,-8.473,-11.5047,15.4232,243.32,31.31,167.2
1132039.0,-0.7137,0.6747,-0.1833,-16.6122,-7.0525,6.6579,243.24,31.4,167.04
1132058.0,-0.6903,0.663,-0.1599,-11.1165,2.4083,1.371,243.17,31.49,166.89
1132077.0,-0.6825,0.6513,-0.1443,-0.6817,3.2431,-10.0377,243.1,31.57,166.75
1132096.0,-0.6435,0.7527,-0.1365,16.0139,-4.3395,-19.7073,243.04,31.64,166.6
1132115.0,-0.5811,0.858,-0.0936,20.1183,-11.0873,-22.7681,242.97,31.7,166.46
1132134.0,-0.6084,0.8931,-0.0897,5.9965,-10.7395,-11.4986,242.89,31.76,166.31
1132153.0,-0.6357,0.9009,-0.0546,-4.5078,-13.1743,-0.0203,242.82,31.82,166.15
1132172.0,-0.6786,0.8541,-0.0429,-10.4209,-12.5482,0.9536,242.74,31.89,166.0
1132192.0,-0.6981,0.8229,-0.0468,-14.7339,-7.8177,-0.716,242.67,31.96,165.85
1132211.0,-0.7254,0.8346,-0.0897,-17.5861,-3.5047,-2.5942,242.6,32.03,165.69
1132230.0,-0.7449,0.8073,-0.117,-21.5513,-1.9047,-3.3594,242.53,32.11,165.54
1132249.0,-0.7371,0.7488,-0.1755,-22.247,-2.6699,-0.3681,242.45,32.19,165.38
1132268.0,-0.7371,0.7371,-0.1677,-18.56,-4.8264,-0.2986,242.38,32.27,165.22
1132292.0,-0.7566,0.7527,-0.0975,-12.2296,-0.0264,-4.1942,242.29,32.37,165.03
1132311.0,-0.7566,0.8229,-0.0351,-7.5687,6.0257,-7.5334,242.22,32.44,164.89
1132330.0,-0.7449,0.8229,-0.0234,-11.1861,12.0083,-6.6986,242.16,32.51,164.75
1132349.0,-0.7917,0.7371,-0.0624,-16.8904,13.7475,2.3449,242.09,32.59,164.61
1132368.0,-0.8346,0.6669,-0.0663,-33.3078,13.0518,8.0492,242.03,32.68,164.47
1132387.0,-0.8814,0.5811,-0.1287,-41.7948,10.2692,13.0579,241.97,32.78,164.34
1132406.0,-0.9126,0.5733,-0.1365,-28.7165,1.9214,3.7362,241.91,32.9,164.21
1132425.0,-0.897,0.5733,-0.1209,-10.1426,-6.009,-7.3942,241.86,33.01,164.09
1132444.0,-0.9126,0.5928,-0.117,0.2226,-10.7395,-9.2725,241.81,33.12,163.98
1132463.0,-0.9321,0.5889,-0.0624,6.2748,-12.9656,-8.5768,241.75,33.24,163.87
1132482.0,-0.9906,0.5967,-0.0546,13.5096,-11.296,-6.2116,241.7,33.35,163.77
1132502.0,-0.9984,0.6201,-0.0546,18.9357,-16.6525,-7.9507,241.65,33.47,163.66
1132521.0,-0.9243,0.6474,-0.039,6.2748,-12.2003,-1.4116,241.59,33.58,163.55
1132540.0,-0.8619,0.5928,-0.0858,-8.6817,-4.1308,6.4493,241.53,33.68,163.42
1132559.0,-0.8346,0.6006,-0.1365,-12.2296,5.8866,9.0232,241.46,33.78,163.28
1132578.0,-0.8385,0.5655,-0.1794,-16.5426,10.8953,10.0666,241.4,33.89,163.14
1132597.0,-0.8385,0.507,-0.1677,-18.8383,18.3388,15.9797,241.34,34.0,163.01
1132616.0,-0.8853,0.4719,-0.2028,-16.8209,24.7388,22.7971,241.28,34.12,162.89
1132635.0,-0.8775,0.546,-0.1833,-2.1426,22.6518,19.8058,241.21,34.22,162.76
1132655.0,-0.8892,0.5889,-0.2067,8.2922,17.3649,15.1449,241.14,34.33,162.62
1132674.0,-0.9126,0.585,-0.2379,19.0748,8.9475,9.5797,241.07,34.45,162.49
1132693.0,-0.8931,0.5967,-0.2028,34.0313,-0.583,2.7623,241.01,34.56,162.36
1132712.0,-0.7956,0.6357,-0.1053,45.5096,-7.9569,-5.9334,240.94,34.66,162.24
1132732.0,-0.7722,0.5928,-0.0858,37.6487,-6.496,-7.9507,240.87,34.76,162.11
1132751.0,-0.7488,0.5772,-0.0585,28.5357,-6.3569,-4.6812,240.8,34.86,161.99
1132770.0,-0.7332,0.6591,-0.0039,20.5357,-2.7395,0.0493,240.73,34.94,161.86
1132789.0,-0.7683,0.7059,0.0078,15.3878,5.6779,0.6753,240.67,35.02,161.73
1132808.0,-0.819,0.6513,0.0,4.6052,8.5997,-1.5507,240.6,35.11,161.6
1132827.0,-0.8502,0.6435,-0.0156,-1.0991,12.4953,-1.9681,240.54,35.2,161.47
1132847.0,-0.8424,0.6903,-0.0039,-3.2557,15.8344,-4.0551,240.47,35.29,161.33
1132866.0,-0.8346,0.702,0.0039,-10.9078,20.4257,-3.4986,240.41,35.37,161.2
1132885.0,-0.8229,0.6318,-0.0312,-18.6991,22.6518,-4.1942,240.35,35.45,161.06
1132904.0,-0.8268,0.5772,-0.0858,-17.9339,18.8257,-7.4638,240.29,35.55,160.93
1132923.0,-0.8112,0.5889,-0.0741,-13.76,11.7301,-6.629,240.23,35.65,160.79
1132942.0,-0.7722,0.663,-0.0429,-15.2209,5.1214,-3.0812,240.16,35.73,160.65
1132961.0,-0.78,0.6903,-0.039,-27.6035,2.9649,5.684,240.08,35.81,160.49
1132981.0,-0.8385,0.6552,-0.0429,-28.5078,-1.8351,5.2666,240.0,35.91,160.33
1133001.0,-0.8151,0.6318,-0.0078,-21.4122,-4.4786,1.3014,239.93,36.0,160.19
1133020.0,-0.8073,0.6435,-0.0156,-16.6817,-3.1569,0.9536,239.86,36.1,160.05
1133039.0,-0.7878,0.6669,-0.0039,-12.2296,-1.2786,-0.7855,239.79,36.18,159.9
1133059.0,-0.7917,0.6786,-0.0156,-9.2383,1.6431,-5.4464,239.72,36.27,159.75
1133078.0,-0.8112,0.6669,-0.0546,-7.6383,2.5475,-8.4377,239.65,36.36,159.61
1133097.0,-0.7917,0.6747,-0.0312,-4.5774,3.591,-8.4377,239.58,36.44,159.46
1133116.0,-0.7956,0.6903,-0.0273,-3.8122,5.4692,-6.9768,239.51,36.52,159.32
1133194.0,-0.8034,0.663,-0.0585,0.5704,-0.3743,-0.7855,239.21,36.89,158.73
1133213.0,-0.7878,0.6825,-0.0507,-1.447,0.1823,1.9275,239.13,36.97,158.58
1133232.0,-0.8073,0.663,-0.0507,2.0313,2.0605,0.1884,239.06,37.06,158.43
1133252.0,-0.8268,0.6786,-0.0546,7.04,2.1997,-3.7073,238.98,37.15,158.28
1133271.0,-0.8112,0.6708,-0.0468,7.527,0.8779,-6.9073,238.91,37.23,158.13
1133290.0,-0.8034,0.6162,-0.0546,4.953,-0.1656,-6.2812,238.83,37.33,157.99
1133309.0,-0.7956,0.6474,-0.0429,4.0487,-1.9047,-6.2116,238.76,37.41,157.84
1133366.0,-0.8112,0.6279,-0.0468,-0.6122,-5.8699,-0.5768,238.54,37.69,157.41
1133385.0,-0.8307,0.6435,-0.0429,1.3357,-6.0786,-0.8551,238.46,37.78,157.26
1133404.0,-0.8385,0.663,-0.0429,2.5878,-7.1221,-1.7594,238.38,37.87,157.11
1133423.0,-0.8424,0.6669,-0.039,2.3096,-7.609,-1.8986,238.31,37.96,156.96
1133500.0,-0.8385,0.6318,-0.0429,0.153,-5.1743,1.9971,238.0,38.34,156.37
1133519.0,-0.8346,0.624,-0.0351,-1.6557,-2.8786,2.4145,237.92,38.43,156.22
1133538.0,-0.8619,0.624,-0.0507,-1.0991,-2.809,2.8319,237.85,38.53,156.08
1133557.0,-0.8424,0.624,-0.0507,0.64,-2.5308,3.4579,237.77,38.62,155.93
1133616.0,-0.8463,0.6045,-0.039,1.6139,3.591,5.5449,237.53,38.9,155.47
1133635.0,-0.8307,0.6162,-0.0195,5.5096,1.0866,2.2753,237.45,38.99,155.32
1133654.0,-0.8268,0.624,-0.0117,7.04,-0.7917,0.0493,237.38,39.08,155.18
1133674.0,-0.8151,0.6162,-0.0156,7.8748,-2.6699,-0.5768,237.29,39.18,155.03
1133693.0,-0.7917,0.6162,-0.0156,9.6139,-1.8351,-1.8986,237.22,39.27,154.88
1133712.0,-0.8034,0.6357,-0.0156,9.6139,0.4605,-2.1768,237.14,39.35,154.73
1133732.0,-0.8307,0.6747,-0.0117,8.153,0.7388,-1.6203,237.05,39.44,154.57
1133751.0,-0.8268,0.6435,-0.0117,5.1617,0.2518,-2.8029,236.97,39.53,154.42
1133770.0,-0.8073,0.6279,-0.0078,5.8574,-0.0264,-2.4551,236.9,39.61,154.27
1133846.0,-0.819,0.6396,-0.0078,4.7443,-1.0003,2.9014,236.57,39.96,153.66
1133865.0,-0.819,0.6396,-0.0117,4.5357,-0.5134,2.9014,236.49,40.04,153.51
1133884.0,-0.8463,0.6318,-0.0273,4.8835,0.3214,1.5101,236.41,40.13,153.36
1133903.0,-0.8424,0.6318,-0.0273,5.2313,-0.4438,-0.5768,236.33,40.22,153.2
1133922.0,-0.8541,0.624,-0.0351,4.6052,-1.0003,-0.3681,236.25,40.31,153.05
1133941.0,-0.8541,0.624,-0.0312,5.5096,-2.0438,-1.2029,236.17,40.4,152.9
1133960.0,-0.8268,0.6123,-0.0195,6.2052,-2.2525,-0.9942,236.09,40.49,152.74
1134038.0,-0.8385,0.6123,-0.0234,4.6748,1.2257,-1.6203,235.76,40.86,152.11
1134057.0,-0.8346,0.6201,-0.0273,4.7443,0.6692,-1.7594,235.68,40.95,151.95
1134077.0,-0.819,0.6201,-0.0078,5.0922,0.6692,-2.3855,235.59,41.04,151.79
1134096.0,-0.8229,0.6279,-0.0156,4.327,1.8518,-1.4812,235.51,41.12,151.63
1134115.0,-0.8112,0.6123,-0.0156,2.4487,3.0344,-0.9247,235.42,41.21,151.47
1134134.0,-0.8034,0.6084,-0.0156,2.3791,3.8692,-0.6464,235.34,41.29,151.31
1134210.0,-0.8346,0.6318,0.0078,1.6139,-0.4438,1.5101,235.0,41.62,150.66
1134229.0,-0.8307,0.6474,0.0,1.0574,-1.7656,0.6753,234.91,41.71,150.5
1134248.0,-0.8307,0.6435,-0.0156,-0.1252,-1.4177,0.5362,234.82,41.79,150.33
1134267.0,-0.8385,0.6396,-0.0234,1.1965,-1.8351,-0.229,234.73,41.87,150.16
1134286.0,-0.8463,0.6474,-0.0273,1.8922,-1.7917,-1.0638,234.53,42.06,149.78
1134329.0,-0.8502,0.6279,-0.0117,1.2661,0.1823,0.1884,234.44,42.15,149.62
1134405.0,-0.819,0.6357,-0.0117,1.6835,2.2692,2.5536,234.08,42.47,148.94
1134424.0,-0.8112,0.6357,-0.0039,2.3096,2.4083,1.3014,233.99,42.55,148.77
1134443.0,-0.8151,0.624,-0.0117,1.1965,2.6866,1.371,233.89,42.63,148.6
1134462.0,-0.8151,0.624,-0.0078,1.2661,2.5475,1.5101,233.8,42.71,148.43
1134481.0,-0.819,0.6201,-0.0117,0.9183,2.6866,2.0666,233.71,42.79,148.25
1134500.0,-0.819,0.6201,-0.0039,1.8922,2.5475,1.5101,233.62,42.87,148.08
1134578.0,-0.8385,0.6279,0.0039,4.0487,-0.3047,-0.229,233.25,43.21,147.39
1134597.0,-0.8346,0.6396,0.0078,2.727,0.3214,0.2579,233.16,43.29,147.22
1134617.0,-0.8307,0.6357,0.0039,1.8226,1.2257,0.7449,233.06,43.37,147.04
1134636.0,-0.8424,0.6357,-0.0039,0.7791,1.7823,-0.0203,232.97,43.45,146.86
1134655.0,-0.8307,0.6318,-0.0078,1.3357,2.0605,-0.8551,232.87,43.53,146.68
1134674.0,-0.8229,0.6279,-0.0117,2.1009,2.8257,-1.6203,232.78,43.61,146.5
1134694.0,-0.8268,0.624,-0.0117,2.0313,3.4518,-1.2029,232.68,43.69,146.32
1134713.0,-0.8229,0.624,-0.0039,2.3791,3.4518,-0.2986,232.59,43.77,146.14
1134732.0,-0.8112,0.6123,-0.0078,1.6139,3.591,0.3971,232.49,43.85,145.96
1134752.0,-0.8112,0.6123,-0.0039,1.8922,3.9388,0.3971,232.39,43.93,145.77
1134771.0,-0.8073,0.6123,0.0,2.1704,3.3127,-0.0899,232.3,44.01,145.59
1134790.0,-0.8229,0.624,0.0039,2.3791,1.8518,0.4666,232.2,44.09,145.41
1134809.0,-0.819,0.6279,0.0039,2.8661,0.3214,0.3275,232.1,44.16,145.23
1134885.0,-0.8346,0.6201,-0.0078,2.0313,1.8518,0.0493,231.71,44.47,144.5
1134904.0,-0.8346,0.6279,-0.0039,3.353,0.7388,-0.3681,231.61,44.55,144.31
1134923.0,-0.8307,0.6279,0.0,3.9096,0.5997,-0.2986,231.52,44.63,144.13
1134942.0,-0.8346,0.6318,0.0,4.0487,0.7388,-0.1594,231.42,44.7,143.94
1134961.0,-0.8307,0.6318,0.0,3.4226,1.2257,-0.7855,231.32,44.78,143.76
1134981.0,-0.8307,0.6279,-0.0039,1.4748,2.2692,-0.1594,231.21,44.85,143.57
1135000.0,-0.8424,0.6084,-0.0039,1.1965,2.8953,-0.5073,231.12,44.94,143.38
1135019.0,-0.858,0.6123,-0.0039,2.5878,3.2431,-0.7855,231.02,45.02,143.2
1135038.0,-0.858,0.624,-0.0117,2.8661,2.8257,-1.2725,230.92,45.1,143.01
1135057.0,-0.8229,0.6084,-0.0156,2.1704,3.3127,-0.7855,230.82,45.18,142.82
1135076.0,-0.7995,0.5967,-0.0117,1.127,6.8605,-1.3421,230.73,45.25,142.63
1135172.0,-0.8463,0.6552,-0.0117,2.4487,-3.6438,0.3275,230.23,45.64,141.69
1135191.0,-0.8112,0.6708,-0.0117,2.24,-2.2525,-0.5768,230.11,45.7,141.48
1135210.0,-0.8151,0.6552,-0.0156,0.153,3.6605,-1.4812,230.0,45.77,141.28
1135229.0,-0.8229,0.6123,-0.0039,-1.1687,7.417,-0.7855,229.9,45.84,141.09
1135248.0,-0.8268,0.5889,0.0,-0.1252,8.1127,0.2579,229.81,45.92,140.9
1135419.0,-0.8385,0.6357,-0.0039,-0.8904,2.2692,1.7884,228.85,46.56,139.11
1135458.0,-0.8229,0.6084,-0.0078,-0.7513,4.4257,1.371,228.63,46.7,138.69
1135478.0,-0.8229,0.5928,-0.0078,-0.1948,4.8431,2.1362,228.52,46.78,138.47
1135497.0,-0.8229,0.585,-0.0039,0.2922,3.591,3.0406,228.42,46.86,138.27
1135517.0,-0.8073,0.6006,0.0039,0.0835,2.9649,3.2493,228.3,46.93,138.06
1135536.0,-0.7878,0.5889,-0.0039,0.4313,1.4344,3.2493,228.19,47.0,137.85
1135555.0,-0.7293,0.6123,0.0156,4.1183,0.1823,7.284,228.07,47.05,137.63
1135574.0,-0.6435,0.5928,0.0039,5.5096,-0.0264,23.3536,227.93,47.08,137.4
1135594.0,-0.4017,0.7488,0.1131,12.0487,-2.2525,53.8927,227.77,47.05,137.16
1135613.0,-0.1677,1.0803,0.0936,22.2052,-4.6177,71.3536,227.62,46.96,136.95
1135632.0,-0.0234,1.287,-0.0936,20.6748,-24.3743,108.9188,227.46,46.83,136.73
1135652.0,0.3354,1.3026,-0.039,19.2835,-65.5569,160.1884,227.28,46.69,136.52
1135671.0,0.5733,1.5834,0.0039,49.4052,-94.2873,202.0667,227.1,46.55,136.32
1135690.0,0.8385,1.911,0.2106,81.8226,-115.296,237.9623,226.9,46.43,136.13
1135709.0,1.1037,1.9929,0.429,91.0748,-121.1395,287.9797,226.68,46.31,135.93
1135728.0,1.0218,1.9929,0.3549,67.7009,-121.4873,324.4319,226.45,46.17,135.72
1135747.0,1.1193,1.9929,0.4485,57.8226,-147.6438,320.1188,226.22,46.04,135.5
1135766.0,0.9243,1.9929,0.2457,70.2748,-188.6178,308.084,225.97,45.92,135.27
1135958.0,-0.9126,1.9929,0.9984,373.5096,-78.7047,534.3797,222.82,44.79,133.47
1135977.0,-1.1661,1.9929,0.858,334.0661,-36.409,490.484,222.55,44.69,133.28
1135997.0,-1.2792,1.9929,0.7917,311.7357,-22.8438,440.6058,222.29,44.6,133.09
1136016.0,-1.716,1.9929,1.2324,302.9704,-18.1134,368.8145,222.07,44.55,132.93
1136035.0,-1.9968,1.5444,1.5132,257.1965,12.6344,299.4579,221.9,44.53,132.81
1136206.0,-1.9968,1.9929,1.4118,-86.3165,-91.8525,-944.1595,222.19,45.64,132.48
1136225.0,-1.9968,1.9929,1.6341,-133.6209,-210.2525,-1140.4725,222.39,46.01,132.49
1136245.0,-1.9968,1.9929,0.7644,-274.3513,-327.2612,-1310.629,222.61,46.47,132.43
1136265.0,-1.9968,1.9929,0.1365,-333.8991,-492.4786,-1439.6725,222.79,46.98,132.31
1136285.0,-1.9968,1.9929,0.1638,-303.9165,-559.7482,-1284.9595,222.9,47.47,132.14
1136305.0,-1.9968,1.9929,1.9929,-346.9078,-513.3482,-795.2203,222.88,47.84,131.91
1136329.0,-1.9968,1.9929,0.936,-536.2644,-334.496,-735.8116,222.88,48.21,131.55
1136348.0,-1.9968,1.9929,-1.1427,-249.2383,-187.8525,-482.316,222.98,48.25,131.4
1136368.0,-1.9968,1.9929,-1.9968,-397.273,51.8692,-525.029,223.31,48.24,131.48
1136387.0,-1.9968,1.9929,-1.9968,-360.2643,76.8431,-656.5073,223.66,48.25,131.61
1136425.0,-1.9968,1.9929,-1.5873,-302.0383,204.5649,-676.6116,224.41,48.25,131.84
1136540.0,-1.9968,1.9929,0.0429,213.0922,446.0953,-506.0377,226.15,48.4,132.0
1136560.0,-1.9968,1.9929,-0.3276,261.3009,422.2344,-498.9421,226.34,48.41,132.05
1136579.0,-1.6146,1.9929,-0.3744,222.6922,398.8605,-418.1768,226.48,48.37,132.07
1136599.0,-1.209,1.9929,-0.1248,191.4574,412.1475,-321.9681,226.59,48.28,132.08
1136618.0,-1.0218,1.9929,0.0819,201.8922,447.9736,-242.8725,226.7,48.18,132.09
1136637.0,-0.9594,1.9929,0.078,211.0052,482.3388,-155.6377,226.78,48.05,132.1
1136657.0,-1.5366,1.9578,-0.3237,206.1357,472.391,-92.8899,226.84,47.91,132.04
1136676.0,-1.1934,1.9071,0.2145,292.6052,383.417,-164.3334,226.89,47.84,132.05
1136695.0,-0.8892,1.9929,0.8229,311.3183,351.2779,-181.2377,226.96,47.79,132.1
1136714.0,-0.8151,1.9929,1.1349,264.7096,293.7475,-158.2812,227.0,47.76,132.12
1136734.0,-0.3783,1.8603,1.4235,177.127,209.991,-85.5855,226.99,47.72,132.09
1136753.0,-0.0156,1.1856,1.5015,121.8226,155.9388,21.5449,226.95,47.68,132.03
1136772.0,0.2769,0.4563,1.3416,42.6574,137.2257,63.4232,226.91,47.65,131.97
1136792.0,0.6942,0.3237,1.3767,78.9009,115.3127,42.5536,226.89,47.61,131.92
1136811.0,0.7722,0.4017,1.3572,137.8922,128.5301,33.9275,226.87,47.56,131.91
1136830.0,0.6396,0.4173,1.4079,158.1357,137.2257,20.9188,226.85,47.53,131.9
1136849.0,0.5421,0.5226,1.5405,150.4835,120.1823,14.5188,226.83,47.5,131.88
1136868.0,0.5031,0.7176,1.5522,111.3878,84.0779,8.0492,226.78,47.48,131.83
1136887.0,0.39,0.7644,1.443,47.7357,45.6779,10.6232,226.72,47.46,131.74
1136906.0,0.3627,0.6786,1.3026,17.8226,12.4953,-8.716,226.66,47.46,131.64
1136925.0,0.4836,0.6981,1.2051,8.4313,-14.4264,-31.0464,226.59,47.46,131.54
1136944.0,0.5187,0.6201,1.0842,-21.6904,-27.0873,-30.8377,226.52,47.46,131.42
1136963.0,0.5616,0.4056,1.0101,-46.1774,-31.4003,-22.0725,226.45,47.46,131.3
1136983.0,0.5655,0.3003,0.9243,-47.6383,-31.6786,-14.629,226.39,47.46,131.19
1137002.0,0.5382,0.2886,0.7956,-44.7165,-32.0264,-16.716,226.32,47.46,131.08
1137022.0,0.5304,0.351,0.7137,-34.9774,-36.1308,-23.9508,226.26,47.45,130.97
1137041.0,0.5343,0.2691,0.6435,-37.8296,-42.8786,-23.7421,226.19,47.44,130.86
1137060.0,0.5772,0.2106,0.5967,-45.0643,-49.4177,-16.1594,226.13,47.43,130.76
1137079.0,0.6123,0.1365,0.5928,-38.6643,-51.4351,-3.0116,226.07,47.42,130.66
1137098.0,0.6084,0.2262,0.5499,-33.2383,-49.2786,8.1188,226.0,47.4,130.56
1137157.0,0.6825,0.117,0.5577,-18.2122,-27.6438,-0.0899,225.83,47.33,130.28
1137176.0,0.6981,0.0741,0.5889,-10.3513,-16.6525,-0.7855,225.78,47.31,130.21
1137195.0,0.7332,0.1365,0.6084,-0.8904,-5.8003,-2.0377,225.74,47.28,130.15
1137214.0,0.6942,0.2301,0.6162,1.9617,1.2257,-1.1334,225.7,47.25,130.08
1137272.0,0.6318,0.1911,0.7215,-6.873,0.8083,-6.6986,225.56,47.19,129.83
1137291.0,0.6474,0.1638,0.741,-4.3687,-0.096,-7.3942,225.51,47.17,129.76
1137386.0,0.624,0.195,0.6942,-8.2643,-18.3221,-4.6116,225.25,47.09,129.34
1137405.0,0.624,0.156,0.7059,-6.3861,-18.3917,-5.3073,225.2,47.08,129.26
1137424.0,0.6318,0.1677,0.6981,-3.673,-18.183,-6.9768,225.15,47.06,129.18
1137443.0,0.9126,0.1248,0.7488,-0.6817,-14.1482,-11.2899,225.11,47.04,129.12
1137462.0,0.7878,0.429,0.6357,13.8574,1.504,-20.9594,225.07,47.01,129.04
1137481.0,0.7956,0.4329,0.6825,14.2748,4.1475,-26.8725,225.03,46.97,128.97
1137501.0,0.6942,0.2808,0.6591,-4.5078,5.5388,-22.1421,224.98,46.95,128.89
1137520.0,0.7332,0.117,0.702,-15.4296,-5.0351,-15.3942,224.95,46.93,128.82
1137539.0,0.6513,0.0741,0.6474,-10.4209,-9.5569,-7.3247,224.91,46.91,128.75
1137559.0,0.6006,0.1755,0.6396,4.1183,-15.9569,1.6493,224.85,46.89,128.67
1137578.0,0.5694,0.2769,0.6864,19.9791,-23.9569,4.7797,224.79,46.87,128.58
1137597.0,0.5577,0.3978,0.6591,19.7009,-30.3569,9.3014,224.71,46.85,128.48
1137616.0,0.5967,0.3627,0.6201,4.0487,-34.0438,19.4579,224.63,46.82,128.37
1137750.0,0.6747,0.1287,0.5733,-25.447,1.7823,6.1014,224.26,46.55,127.76
1137769.0,0.6942,0.0,0.5655,-23.4991,-0.7221,7.9101,224.23,46.52,127.7
1137788.0,0.7215,-0.0039,0.5772,-11.2557,-1.1395,7.8406,224.19,46.5,127.64
1137807.0,0.7332,0.0507,0.6084,1.9617,1.8518,1.8579,224.16,46.47,127.58
1137826.0,0.7137,0.1287,0.6318,8.64,4.7736,-4.1247,224.12,46.44,127.51
1137845.0,0.7059,0.1794,0.6474,7.527,4.1475,-8.0899,224.08,46.42,127.45
1137864.0,0.7098,0.2301,0.6474,0.9878,2.8953,-8.7855,224.04,46.39,127.38
1137883.0,0.7293,0.1989,0.6318,-6.3861,3.8692,-6.2116,224.0,46.36,127.3
1137902.0,0.702,0.1755,0.6201,-4.0904,5.6779,-5.7942,223.97,46.33,127.23
1137921.0,0.6903,0.1716,0.6474,4.5357,6.8605,-5.8638,223.93,46.3,127.16
1137941.0,0.6747,0.2301,0.6513,8.8487,7.2779,-3.8464,223.88,46.27,127.09
1137960.0,0.6708,0.3003,0.6591,14.3443,7.2779,-2.9421,223.84,46.24,127.01
1137980.0,0.6669,0.3315,0.6669,11.9096,6.6518,-0.5768,223.79,46.2,126.93
1137999.0,0.6669,0.3315,0.6435,4.7443,3.8692,3.3188,223.73,46.16,126.85
1138115.0,0.6747,0.195,0.6396,7.4574,2.8953,6.5884,223.46,45.97,126.39
1138134.0,0.6864,0.2145,0.6513,5.44,2.4083,5.1275,223.42,45.93,126.32
1138153.0,0.6981,0.2145,0.6669,1.8922,3.591,4.084,223.37,45.9,126.24
1138173.0,0.7098,0.1638,0.6708,-1.0991,6.8605,4.2232,223.33,45.87,126.17
1138192.0,0.702,0.1443,0.6669,0.153,8.391,2.6232,223.29,45.84,126.1
1138211.0,0.7098,0.1443,0.6474,2.5183,9.017,2.2058,223.25,45.81,126.03
1138230.0,0.6903,0.1443,0.624,4.5357,7.904,2.4145,223.22,45.78,125.97
1138249.0,0.6903,0.1794,0.6357,8.5009,3.9388,2.971,223.17,45.75,125.9
1138268.0,0.6864,0.2106,0.6357,7.2487,0.9475,4.7101,223.13,45.72,125.82
1138287.0,0.6825,0.2223,0.6513,2.5878,-0.3743,5.5449,223.08,45.69,125.74
1138306.0,0.6825,0.1677,0.6591,-1.8643,0.9475,5.9623,223.04,45.66,125.67
1138425.0,0.6786,0.1794,0.6552,-0.1948,6.304,2.1362,222.78,45.46,125.22
1138444.0,0.6708,0.156,0.6513,0.9183,6.2344,0.0493,222.74,45.43,125.15
1138463.0,0.6864,0.156,0.6708,1.8226,5.8866,-0.5073,222.7,45.4,125.08
1138598.0,0.6825,0.1677,0.6591,1.5443,-1.3482,-4.4029,222.4,45.21,124.56
1138656.0,0.6825,0.2301,0.6474,0.9878,0.5301,-0.4377,222.26,45.11,124.34
